timestamp_ms,ax,ay,az,gx,gy,gz,temp_c,steps_hw,steps_sw,bat_mv,bat_soc,hr_bpm,spo2_pct
1777327270216,14825,1818,-5672,206,75,-122,25.29,0,0,3791,4,0,0
1777327270216,15032,1745,-5595,220,101,-133,25.29,0,0,3791,4,0,0
1777327270249,15283,1765,-5560,236,120,-117,25.29,0,0,3791,4,0,0
1777327270250,15557,1733,-5516,208,128,-92,25.29,0,0,3791,4,0,0
1777327270250,15832,1757,-5367,133,134,-39,25.29,0,0,3791,4,0,0
1777327270332,16069,1971,-5434,28,137,25,25.29,0,0,3791,4,0,0
1777327270332,16492,2308,-5436,-81,139,78,25.29,0,0,3791,4,0,0
1777327270381,16919,2775,-5324,-144,135,113,25.29,0,0,3791,4,0,0
1777327270381,17163,3009,-5027,-158,151,104,25.29,0,0,3791,4,0,0
1777327270431,17480,2922,-4833,-145,204,57,25.29,0,0,3791,4,0,0
1777327270431,17670,2386,-4820,-99,249,20,25.29,0,0,3791,4,0,0
1777327270431,18272,2044,-4684,-29,285,36,25.29,0,0,3791,4,0,0
1777327270431,19876,2603,-5141,1,368,138,25.29,0,0,3791,4,0,0
1777327270431,20690,3431,-5660,-52,372,224,25.29,0,0,3791,4,0,0
1777327270482,19544,3307,-5703,-193,303,206,25.29,0,0,3791,4,0,0
1777327270482,17963,2717,-5643,-310,226,188,25.28,0,0,3791,4,0,0
1777327270532,16929,2361,-5260,-346,157,204,25.28,0,0,3791,4,0,0
1777327270532,15944,2215,-4691,-324,125,202,25.28,0,0,3791,4,0,0
1777327270565,14454,1469,-4382,-233,144,145,25.28,0,0,3791,4,0,0
1777327270565,13396,542,-4519,-80,159,109,25.28,0,0,3791,4,0,0
1777327270631,12885,112,-4609,105,152,167,25.28,0,0,3791,4,0,0
1777327270631,13058,339,-4651,268,115,273,25.28,0,0,3791,4,0,0
1777327270631,13525,1281,-4278,374,35,390,25.28,0,0,3791,4,0,0
1777327270665,14040,1957,-4110,363,9,422,25.28,0,0,3791,4,0,0
1777327270665,14204,2330,-4234,329,-20,433,25.28,0,0,3791,4,0,0
1777327270731,14102,2589,-4340,299,-69,459,25.28,0,0,3791,4,0,0
1777327270731,13675,2926,-4119,282,-153,472,25.28,0,0,3791,4,0,0
1777327270765,12799,3180,-3566,261,-244,440,25.28,0,0,3791,4,0,0
1777327270765,12321,3464,-2895,239,-306,357,25.28,0,0,3791,4,0,0
1777327270798,12289,3514,-2302,255,-311,233,25.28,0,0,3791,4,0,0
1777327270798,12592,3233,-1961,321,-282,101,25.28,0,0,3791,4,0,0
1777327270798,12807,2854,-1411,381,-211,8,25.28,0,0,3791,4,0,0
1777327270864,13141,2447,-1459,410,-105,-41,25.28,0,0,3791,4,0,0
1777327270864,13605,2377,-1783,408,-22,-43,25.28,0,0,3791,4,0,0
1777327270898,13594,2462,-2220,353,0,-37,25.28,0,0,3791,4,0,0
1777327270898,13597,2563,-2429,248,-32,-32,25.28,0,0,3791,4,0,0
1777327270999,13148,2505,-2590,98,-96,-40,25.28,0,0,3791,4,0,0
1777327270999,12849,2541,-2612,-42,-155,-59,25.28,0,0,3791,4,0,0
1777327270999,13922,3090,-2543,-157,-199,-92,25.28,0,0,3791,4,0,0
1777327270999,15059,3588,-2497,-219,-230,-193,25.28,0,0,3791,4,0,0
1777327271032,15505,3375,-2316,-240,-209,-323,25.28,0,0,3791,4,0,0
1777327271032,15955,2735,-2339,-197,-129,-408,25.28,0,0,3791,4,0,0
1777327271032,16370,2337,-2584,-148,-20,-401,25.28,0,0,3791,4,0,0
1777327271066,17123,2314,-3430,-146,150,-377,25.28,0,0,3791,4,0,0
1777327271066,20330,2507,-5380,-188,392,-451,25.28,0,0,3791,4,0,0
1777327271132,24112,2534,-8607,-151,520,-515,25.28,0,0,3791,4,0,0
1777327271132,24955,1716,-9854,7,258,-492,25.28,0,0,3791,4,0,0
1777327271183,22453,-50,-8788,75,-45,-473,25.28,0,0,3791,4,0,0
1777327271215,19689,-1826,-7452,51,-202,-424,25.28,0,0,3791,4,0,0
1777327271215,17583,-2876,-6175,146,-218,-285,25.28,0,0,3791,4,0,0
1777327271216,16488,-2566,-5204,496,-106,-80,25.28,0,0,3791,4,0,0
1777327271216,15998,-1554,-4742,887,83,80,25.28,0,0,3791,4,0,0
1777327271265,15304,-868,-4708,1125,246,63,25.28,0,0,3791,4,0,0
1777327271265,14961,-1018,-4998,1216,376,-66,25.28,0,0,3791,4,0,0
1777327271315,14668,-2061,-5532,1282,419,-130,25.28,0,0,3791,4,0,0
1777327271315,14280,-2490,-5548,1315,356,-23,25.28,0,0,3791,4,0,0
1777327271333,13686,-2646,-5517,1308,299,173,25.28,0,0,3791,4,0,0
1777327271333,13610,-2085,-5334,1182,234,378,25.28,0,0,3791,4,0,0
1777327271333,13647,-1064,-4730,1041,142,546,25.28,0,0,3791,4,0,0
1777327271383,13581,-212,-4486,873,124,611,25.28,0,0,3791,4,0,0
1777327271383,13540,248,-4783,729,126,623,25.28,0,0,3791,4,0,0
1777327271449,14049,725,-4686,614,112,653,25.28,0,0,3791,4,0,0
1777327271449,14346,1463,-4768,557,123,701,25.28,0,0,3791,4,0,0
1777327271482,14897,2034,-4887,505,129,695,25.28,0,0,3791,4,0,0
1777327271482,15239,2664,-4807,529,128,649,25.28,0,0,3791,4,0,0
1777327271515,15202,2620,-4411,595,153,575,25.28,0,0,3791,4,0,0
1777327271515,14608,2238,-4469,609,213,523,25.28,0,0,3791,4,0,0
1777327271515,14523,2200,-4598,556,217,510,25.26,0,0,3750,4,0,0
1777327271582,14960,2793,-4396,473,197,536,25.26,0,0,3750,4,0,0
1777327271582,16232,4163,-4010,385,194,543,25.26,0,0,3750,4,0,0
1777327271615,17386,5237,-3485,275,239,441,25.26,0,0,3750,4,0,0
1777327271615,18705,5989,-3405,180,322,297,25.26,0,0,3750,4,0,0
1777327271648,18622,6030,-3388,119,354,125,25.26,0,0,3750,4,0,0
1777327271648,18717,6119,-3131,48,387,-31,25.26,0,0,3750,4,0,0
1777327271715,20045,7015,-3164,-63,467,-136,25.26,0,0,3750,4,0,0
1777327271715,19771,7078,-3189,-228,503,-279,25.26,0,0,3750,4,0,0
1777327271715,17776,6007,-3491,-510,509,-474,25.26,0,0,3750,4,0,0
1777327271748,16177,4711,-4029,-861,446,-624,25.26,0,0,3750,4,0,0
1777327271748,15728,3792,-4746,-1220,181,-747,25.26,0,0,3750,4,0,0
1777327271799,15347,3100,-4202,-1193,-63,-898,25.26,0,0,3750,4,0,0
1777327271799,15110,2133,-3343,-1029,-187,-1091,25.26,0,0,3750,4,0,0
1777327271848,14951,1066,-2480,-759,-190,-1210,25.26,0,0,3750,4,0,0
1777327271848,14716,81,-2118,-427,-94,-1191,25.26,0,0,3750,4,0,0
1777327271882,14372,-373,-2347,-184,40,-1056,25.26,0,0,3750,4,0,0
1777327271882,13963,-276,-2857,-89,113,-854,25.26,0,0,3750,4,0,0
1777327271882,13907,87,-3266,-163,108,-674,25.26,0,0,3750,4,0,0
1777327271915,13054,332,-3257,-312,53,-527,25.26,0,0,3750,4,0,0
1777327271915,12480,501,-3356,-501,21,-433,25.26,0,0,3750,4,0,0
1777327271982,12292,618,-3739,-649,2,-356,25.26,0,0,3750,4,0,0
1777327271982,12231,859,-4072,-734,-53,-298,25.26,0,0,3750,4,0,0
1777327272015,12467,1149,-4440,-758,-124,-262,25.26,0,0,3750,4,0,0
1777327272015,12882,1551,-4345,-737,-221,-264,25.26,0,0,3750,4,0,0
1777327272049,13686,1650,-3804,-679,-305,-320,25.26,0,0,3750,4,0,0
1777327272049,14403,1330,-2912,-606,-377,-411,25.26,0,0,3750,4,0,0
1777327272049,14292,349,-2272,-525,-353,-441,25.26,0,0,3750,4,0,0
1777327272115,14405,-347,-2426,-457,-265,-420,25.26,0,0,3750,4,0,0
1777327272115,14718,-773,-2753,-380,-255,-387,25.26,0,0,3750,4,0,0
1777327272149,15170,-887,-2612,-264,-324,-335,25.26,0,0,3750,4,0,0
1777327272149,15863,-708,-1977,-111,-367,-276,25.26,0,0,3750,4,0,0
1777327272215,17063,-47,-1338,12,-334,-242,25.26,0,0,3750,4,0,0
1777327272215,18452,230,-1363,50,-241,-270,25.26,0,0,3750,4,0,0
1777327272249,19534,-13,-1900,43,-124,-300,25.26,0,0,3750,4,0,0
1777327272249,19450,-732,-3086,28,-76,-250,25.26,0,0,3750,4,0,0
1777327272282,20737,-353,-4110,-21,-85,-62,25.26,0,0,3750,4,0,0
1777327272282,23890,1739,-5107,-151,-81,204,25.26,0,0,3750,4,0,0
1777327272282,25069,3552,-6049,-338,-94,354,25.26,0,0,3750,4,0,0
1777327272332,23576,3457,-6705,-442,-197,268,25.26,0,0,3750,4,0,0
1777327272332,21484,1800,-6138,-331,-337,85,25.26,0,0,3750,4,0,0
1777327272365,19671,116,-4906,-35,-312,33,25.26,0,0,3750,4,0,0
1777327272365,18741,-403,-4480,375,-101,227,25.26,0,0,3750,4,0,0
1777327272432,18312,305,-4711,848,140,541,25.26,0,0,3750,4,0,0
1777327272432,17630,1306,-5211,1170,309,750,25.26,0,0,3750,4,0,0
1777327272432,16607,1844,-5566,1230,342,828,25.26,0,0,3750,4,0,0
1777327272465,15803,1597,-5896,1117,285,864,25.26,0,0,3750,4,0,0
1777327272465,14768,1395,-5458,1002,171,935,25.26,0,0,3750,4,0,0
1777327272531,13673,1199,-5192,960,80,1040,25.26,0,0,3750,4,0,0
1777327272531,13237,1580,-4466,955,6,1135,25.26,0,0,3750,4,0,0
1777327272565,12834,1991,-3772,954,-8,1185,25.27,0,0,3713,4,0,0
1777327272565,12568,2489,-3429,959,37,1189,25.27,0,0,3713,4,0,0
1777327272599,12991,3067,-3346,974,119,1174,25.27,0,0,3713,4,0,0
1777327272698,13098,3613,-3325,1022,211,1132,25.27,0,0,3713,4,0,0
1777327272698,12978,4006,-3467,1037,308,1061,25.27,0,0,3713,4,0,0
1777327272698,13007,4302,-3999,949,362,958,25.27,0,0,3713,4,0,0
1777327272698,13294,4440,-4469,797,342,858,25.27,0,0,3713,4,0,0
1777327272698,13671,4512,-4368,605,244,749,25.27,0,0,3713,4,0,0
1777327272698,13626,4354,-3843,380,154,662,25.27,0,0,3713,4,0,0
1777327272798,13962,4401,-3350,163,124,598,25.27,0,0,3713,4,0,0
1777327272832,15211,5164,-3209,-1,170,544,25.27,0,0,3713,4,0,0
1777327272832,16514,5929,-3403,-90,223,446,25.27,0,0,3713,4,0,0
1777327272832,17895,6614,-3631,-183,260,299,25.27,0,0,3713,4,0,0
1777327272832,18255,6647,-3993,-313,262,108,25.27,0,0,3713,4,0,0
1777327272832,18127,5985,-4244,-465,213,-94,25.27,0,0,3713,4,0,0
1777327272833,19974,6086,-4150,-603,182,-195,25.27,0,0,3713,4,0,0
1777327272865,20886,6324,-4010,-720,141,-232,25.27,0,0,3713,4,0,0
1777327272865,18466,5706,-3601,-1012,136,-395,25.27,0,0,3713,4,0,0
1777327272931,16173,4382,-3761,-1254,121,-627,25.27,0,0,3713,4,0,0
1777327272931,15334,3301,-4240,-1385,52,-844,25.27,0,0,3713,4,0,0
1777327272965,15076,2612,-4195,-1312,-84,-1015,25.27,0,0,3713,4,0,0
1777327272965,15612,2160,-3274,-1054,-207,-1197,25.27,0,0,3713,4,0,0
1777327272981,15926,1359,-2546,-755,-218,-1358,25.27,0,0,3713,4,0,0
1777327273015,16245,416,-1892,-513,-136,-1419,25.27,0,0,3713,4,0,0
1777327273015,16160,-610,-1836,-339,53,-1318,25.27,0,0,3713,4,0,0
1777327273066,15382,-1186,-2576,-248,225,-1058,25.27,0,0,3713,4,0,0
1777327273066,14789,-969,-3679,-321,283,-737,25.27,0,0,3713,4,0,0
1777327273099,14276,-281,-4555,-511,183,-489,25.27,0,0,3713,4,0,0
1777327273099,13438,343,-4501,-736,14,-342,25.27,0,0,3713,4,0,0
1777327273133,13313,789,-4417,-889,-123,-281,25.27,0,0,3713,4,0,0
1777327273133,12846,1050,-3911,-919,-214,-269,25.27,0,0,3713,4,0,0
1777327273133,12624,1473,-3381,-867,-225,-297,25.27,0,0,3713,4,0,0
1777327273198,12673,1758,-3062,-745,-178,-390,25.27,0,0,3713,4,0,0
1777327273198,12772,1723,-2998,-552,-124,-532,25.27,0,0,3713,4,0,0
1777327273233,13489,1219,-2902,-346,-81,-676,25.27,0,0,3713,4,0,0
1777327273233,13850,293,-2658,-188,-52,-757,25.27,0,0,3713,4,0,0
1777327273265,13922,-602,-2826,-112,-20,-723,25.27,0,0,3713,4,0,0
1777327273265,14081,-822,-2967,-107,-39,-624,25.27,0,0,3713,4,0,0
1777327273332,14595,-612,-3019,-150,-93,-542,25.27,0,0,3713,4,0,0
1777327273332,15592,-160,-3069,-186,-160,-487,25.27,0,0,3713,4,0,0
1777327273332,17062,116,-3231,-212,-207,-466,25.27,0,0,3713,4,0,0
1777327273366,18057,-147,-3131,-192,-221,-424,25.27,0,0,3713,4,0,0
1777327273366,18480,-403,-3319,-156,-164,-312,25.27,0,0,3713,4,0,0
1777327273432,18494,-463,-4151,-118,-115,-144,25.27,0,0,3713,4,0,0
1777327273432,19527,312,-4947,-102,-113,67,25.27,0,0,3713,4,0,0
1777327273465,21866,2263,-5467,-131,-126,284,25.27,0,0,3713,4,0,0
1777327273465,23200,3768,-5706,-216,-153,363,25.27,0,0,3713,4,0,0
1777327273498,22586,3496,-5772,-297,-229,299,25.27,0,0,3713,4,0,0
1777327273498,20191,1824,-5048,-287,-276,196,25.27,0,0,3713,4,0,0
1777327273498,18606,543,-4252,-99,-201,221,25.26,0,5,3723,4,0,0
1777327273565,18232,374,-4483,232,-39,382,25.26,0,5,3723,4,0,0
1777327273565,17785,983,-4795,616,75,586,25.26,0,5,3723,4,0,0
1777327273599,17236,1778,-4861,885,130,706,25.26,0,5,3723,4,0,0
1777327273599,16842,2439,-5109,944,157,744,25.26,0,5,3723,4,0,0
1777327273633,16600,2538,-5184,871,94,708,25.26,0,5,3723,4,0,0
1777327273633,15529,1840,-4893,792,29,688,25.26,0,5,3723,4,0,0
1777327273698,14535,1201,-4585,728,-10,749,25.26,0,5,3723,4,0,0
1777327273698,13835,1229,-4317,736,-16,871,25.26,0,5,3723,4,0,0
1777327273698,13557,1886,-3955,796,-8,960,25.26,0,5,3723,4,0,0
1777327273731,13236,2563,-3567,884,23,954,25.26,0,5,3723,4,0,0
1777327273732,12876,2782,-3191,978,85,882,25.26,0,5,3723,4,0,0
1777327273831,12557,3028,-3185,1029,173,794,25.26,0,5,3723,4,0,0
1777327273831,12836,3212,-3406,1028,247,717,25.26,0,5,3723,4,0,0
1777327273831,13096,3531,-3517,982,297,645,25.26,0,5,3723,4,0,0
1777327273831,13297,3764,-3836,896,319,558,25.26,0,5,3723,4,0,0
1777327273865,13610,3888,-3993,776,313,454,25.26,0,5,3723,4,0,0
1777327273865,14177,3800,-4175,623,281,345,25.26,0,5,3723,4,0,0
1777327273865,14755,3768,-4030,485,253,259,25.26,0,5,3723,4,0,0
1777327273965,15683,3923,-4055,377,249,191,25.26,0,5,3723,4,0,0
1777327273965,16658,4301,-3976,317,256,130,25.26,0,5,3723,4,0,0
1777327273965,18342,5066,-4034,273,294,69,25.26,0,5,3723,4,0,0
1777327273965,19727,5478,-4232,208,306,-33,25.26,0,5,3723,4,0,0
1777327273998,19730,5046,-3984,137,274,-136,25.26,0,5,3723,4,0,0
1777327273998,19880,5354,-3457,-12,321,-192,25.26,0,5,3723,4,0,0
1777327274033,20482,6284,-3801,-144,372,-199,25.26,0,5,3723,4,0,0
1777327274165,19127,6178,-3889,-344,352,-316,25.26,0,5,3723,4,0,0
1777327274165,16723,4933,-4314,-634,261,-508,25.26,0,5,3723,4,0,0
1777327274165,14770,3345,-4557,-850,87,-662,25.26,0,5,3723,4,0,0
1777327274165,13955,2417,-3952,-880,-113,-708,25.26,0,5,3723,4,0,0
1777327274198,13767,2240,-2707,-742,-209,-737,25.26,0,5,3723,4,0,0
1777327274198,13748,2188,-1848,-498,-156,-804,25.26,0,5,3723,4,0,0
1777327274198,14515,2016,-1832,-208,-30,-881,25.26,0,5,3723,4,0,0
1777327274198,14853,1646,-2345,6,60,-917,25.26,0,5,3723,4,0,0
1777327274232,14608,1244,-2759,32,82,-873,25.26,0,5,3723,4,0,0
1777327274232,14275,902,-3155,-112,56,-772,25.26,0,5,3723,4,0,0
1777327274232,13518,517,-3193,-338,-20,-634,25.26,0,5,3723,4,0,0
1777327274266,12532,173,-3511,-599,-84,-479,25.26,0,5,3723,4,0,0
1777327274266,12174,461,-3818,-807,-191,-356,25.26,0,5,3723,4,0,0
1777327274332,12008,718,-3711,-897,-328,-307,25.26,0,5,3723,4,0,0
1777327274332,11876,867,-3065,-888,-418,-323,25.26,0,5,3723,4,0,0
1777327274365,12152,803,-2428,-761,-425,-382,25.26,0,5,3723,4,0,0
1777327274365,12498,704,-2029,-589,-371,-438,25.26,0,5,3723,4,0,0
1777327274398,13086,686,-1917,-445,-275,-460,25.26,0,5,3723,4,0,0
1777327274398,14091,731,-2376,-360,-199,-480,25.26,0,5,3723,4,0,0
1777327274398,14783,579,-2849,-296,-196,-497,25.26,0,5,3723,4,0,0
1777327274465,15164,416,-3004,-283,-247,-476,25.26,0,5,3723,4,0,0
1777327274465,15424,299,-2922,-311,-309,-444,25.26,0,5,3723,4,0,0
1777327274498,16112,419,-2678,-326,-357,-416,25.26,0,5,3723,4,0,0
1777327274498,16861,644,-2510,-279,-377,-386,25.24,0,6,3728,4,0,0
1777327274548,17778,1055,-2477,-220,-368,-367,25.24,0,6,3728,4,0,0
1777327274548,19094,1365,-2820,-187,-312,-388,25.24,0,6,3728,4,0,0
1777327274581,19593,1129,-3253,-173,-275,-399,25.24,0,6,3728,4,0,0
1777327274582,20484,1064,-3861,-190,-231,-334,25.24,0,6,3728,4,0,0
1777327274582,23229,2654,-4587,-232,-126,-144,25.24,0,6,3728,4,0,0
1777327274695,25193,4220,-5599,-303,-72,-15,25.24,0,6,3728,4,0,0
1777327274695,23735,3547,-6291,-385,-157,-97,25.24,0,6,3728,4,0,0
1777327274695,19984,738,-5747,-364,-297,-239,25.24,0,6,3728,4,0,0
1777327274695,17709,-1201,-4670,-164,-286,-163,25.24,0,6,3728,4,0,0
1777327274745,17087,-1192,-4278,288,-179,98,25.24,0,6,3728,4,0,0
1777327274745,16843,-62,-3417,887,-56,400,25.24,0,6,3728,4,0,0
1777327274778,16477,1302,-2916,1261,153,512,25.24,0,6,3728,4,0,0
1777327274778,16220,1768,-3413,1325,323,457,25.24,0,6,3728,4,0,0
1777327274778,16262,1107,-4266,1206,381,415,25.24,0,6,3728,4,0,0
1777327274811,15311,134,-4639,1043,331,508,25.24,0,6,3728,4,0,0
1777327274811,14482,-17,-4571,911,292,735,25.24,0,6,3728,4,0,0
1777327274862,14350,702,-5163,794,246,963,25.24,0,6,3728,4,0,0
1777327274862,14361,1593,-5178,694,161,1088,25.24,0,6,3728,4,0,0
1777327274895,14098,2197,-4784,640,82,1116,25.24,0,6,3728,4,0,0
1777327274895,13666,2351,-3983,664,63,1099,25.24,0,6,3728,4,0,0
1777327274995,13512,2510,-3637,777,161,1090,25.24,0,6,3728,4,0,0
1777327274995,13898,3069,-4091,911,281,1088,25.24,0,6,3728,4,0,0
1777327274995,13754,3525,-4395,1017,351,1060,25.24,0,6,3728,4,0,0
1777327274995,13830,3967,-4798,1031,396,994,25.24,0,6,3728,4,0,0
1777327274995,14040,4196,-5172,985,373,916,25.24,0,6,3728,4,0,0
1777327275094,14276,4407,-5003,868,306,838,25.24,0,6,3728,4,0,0
1777327275095,15154,4731,-4649,697,262,768,25.24,0,6,3728,4,0,0
1777327275095,16149,5276,-4418,533,270,704,25.24,0,6,3728,4,0,0
1777327275095,17426,6008,-4736,402,305,613,25.24,0,6,3728,4,0,0
1777327275128,18042,6366,-4955,238,270,380,25.24,0,6,3728,4,0,0
1777327275128,17581,5997,-4767,111,216,220,25.24,0,6,3728,4,0,0
1777327275128,17627,5834,-4179,-10,161,93,25.24,0,6,3728,4,0,0
1777327275178,19414,6816,-3900,-136,181,-1,25.24,0,6,3728,4,0,0
1777327275178,19910,7299,-3991,-292,180,-150,25.24,0,6,3728,4,0,0
1777327275228,19129,6269,-4027,-499,154,-391,25.24,0,6,3728,4,0,0
1777327275228,17007,3988,-4435,-695,78,-605,25.24,0,6,3728,4,0,0
1777327275294,15431,1870,-4326,-720,-68,-665,25.24,0,6,3728,4,0,0
1777327275294,15236,1165,-3610,-577,-181,-588,25.24,0,6,3728,4,0,0
1777327275294,15619,1528,-2475,-343,-224,-484,25.24,0,6,3728,4,0,0
1777327275295,15544,1942,-1533,-85,-177,-433,25.24,0,6,3728,4,0,0
1777327275295,15113,2074,-1166,54,-58,-416,25.24,0,6,3728,4,0,0
1777327275394,13896,2003,-1327,18,27,-376,25.24,0,6,3728,4,0,0
1777327275395,12836,2040,-1581,-183,64,-334,25.24,0,6,3728,4,0,0
1777327275395,11957,1933,-2179,-503,42,-340,25.24,0,6,3728,4,0,0
1777327275395,11380,1424,-2814,-817,-31,-348,25.24,0,6,3728,4,0,0
1777327275428,11137,1341,-2938,-1076,-134,-336,25.24,0,6,3728,4,0,0
1777327275428,11070,1466,-3011,-1229,-230,-338,25.24,0,6,3728,4,0,0
1777327275511,11053,1675,-2940,-1323,-273,-381,25.24,0,6,3728,4,0,0
1777327275511,11401,1933,-3007,-1300,-266,-472,25.24,0,6,3728,4,0,0
1777327275511,11957,1987,-3156,-1164,-242,-605,25.24,0,6,3728,4,0,0
1777327275545,12610,1829,-3209,-984,-218,-750,25.24,7,8,3733,4,0,0
1777327275545,13224,1302,-3371,-830,-211,-882,25.24,7,8,3733,4,0,0
1777327275661,14075,533,-3504,-716,-226,-969,25.24,7,8,3733,4,0,0
1777327275661,15618,-552,-3683,-587,-236,-978,25.24,7,8,3733,4,0,0
1777327275661,16484,-2089,-3880,-393,-222,-905,25.24,7,8,3733,4,0,0
1777327275661,17249,-2577,-3844,-111,-190,-703,25.24,7,8,3733,4,0,0
1777327275661,18732,-1979,-4025,150,-126,-475,25.24,7,8,3733,4,0,0
1777327275661,19927,-917,-4376,292,-84,-337,25.24,7,8,3733,4,0,0
1777327275661,20239,-630,-4606,281,-137,-321,25.24,7,8,3733,4,0,0
1777327275695,19766,-975,-4448,141,-215,-324,25.24,7,8,3733,4,0,0
1777327275695,21318,-404,-4419,-25,-210,-245,25.24,7,8,3733,4,0,0
1777327275761,23353,910,-4822,-178,-176,-133,25.24,7,8,3733,4,0,0
1777327275761,23393,1433,-5189,-283,-150,-109,25.24,7,8,3733,4,0,0
1777327275861,21882,429,-5288,-341,-164,-203,25.24,7,8,3733,4,0,0
1777327275861,19880,-1439,-4994,-286,-185,-272,25.24,7,8,3733,4,0,0
1777327275861,18605,-2467,-4290,-70,-134,-157,25.24,7,8,3733,4,0,0
1777327275861,17614,-2315,-3967,256,19,59,25.24,7,8,3733,4,0,0
1777327275861,17177,-1236,-3986,678,188,283,25.24,7,8,3733,4,0,0
1777327275894,16630,-361,-4357,999,323,381,25.24,7,8,3733,4,0,0
1777327275894,16376,58,-4750,1132,396,408,25.24,7,8,3733,4,0,0
1777327275927,16111,-130,-5175,1126,390,436,25.24,7,8,3733,4,0,0
1777327275927,15384,-644,-5049,1071,345,540,25.24,7,8,3733,4,0,0
1777327275994,14510,-886,-4860,1015,368,713,25.24,7,8,3733,4,0,0
1777327275994,14095,-592,-5030,922,382,920,25.24,7,8,3733,4,0,0
1777327276027,14138,397,-5517,853,350,1083,25.24,7,8,3733,4,0,0
1777327276027,14434,1328,-5603,809,258,1145,25.24,7,8,3733,4,0,0
1777327276027,14495,1890,-5127,807,165,1144,25.24,7,8,3733,4,0,0
1777327276062,13907,2035,-4374,827,163,1125,25.24,7,8,3733,4,0,0
1777327276062,13635,2464,-4136,849,256,1120,25.24,7,8,3733,4,0,0
1777327276129,13802,2986,-4278,892,362,1085,25.24,7,8,3733,4,0,0
1777327276129,14382,3675,-4702,918,430,1021,25.24,7,8,3733,4,0,0
1777327276162,14754,4262,-5012,902,421,929,25.24,7,8,3733,4,0,0
1777327276162,15136,4630,-4872,805,351,803,25.24,7,8,3733,4,0,0
1777327276195,15309,4835,-4235,649,313,666,25.24,7,8,3733,4,0,0
1777327276195,16342,5122,-4002,459,354,528,25.24,7,8,3733,4,0,0
1777327276195,17571,5519,-4178,328,381,402,25.24,7,8,3733,4,0,0
1777327276262,18162,5790,-4218,215,367,200,25.24,7,8,3733,4,0,0
1777327276262,18666,5826,-4233,74,339,53,25.24,7,8,3733,4,0,0
1777327276295,20226,6472,-4357,-121,335,-34,25.24,7,8,3733,4,0,0
1777327276295,20611,6827,-4640,-352,315,-109,25.24,7,8,3733,4,0,0
1777327276328,19202,6431,-5438,-652,241,-234,25.24,7,8,3733,4,0,0
1777327276328,16799,5154,-5713,-939,21,-421,25.24,7,8,3733,4,0,0
1777327276511,14611,3758,-5111,-1022,-236,-578,25.24,7,8,3733,4,0,0
1777327276511,13952,2971,-3500,-906,-436,-708,25.24,7,8,3733,4,0,0
1777327276511,14110,2475,-2138,-648,-432,-840,25.24,7,8,3733,4,0,0
1777327276511,14768,1921,-1345,-288,-315,-925,25.24,7,8,3733,4,0,0
1777327276511,14737,1398,-1005,32,-122,-906,25.24,7,8,3733,4,0,0
1777327276512,14246,1085,-1432,165,84,-772,25.24,7,8,3733,4,0,0
1777327276512,13745,954,-2467,46,208,-581,25.24,7,8,3733,4,0,0
1777327276512,12921,975,-3524,-258,184,-369,25.26,9,10,3731,4,0,0
1777327276512,12536,1515,-4326,-672,51,-168,25.26,9,10,3731,4,0,0
1777327276578,12249,1922,-4651,-1027,-123,-68,25.26,9,10,3731,4,0,0
1777327276578,11775,2300,-4326,-1294,-290,-75,25.26,9,10,3731,4,0,0
1777327276578,11881,2746,-4208,-1389,-399,-153,25.26,9,10,3731,4,0,0
1777327276611,12075,2924,-3703,-1317,-457,-318,25.26,9,10,3731,4,0,0
1777327276611,12537,2786,-3142,-1119,-445,-522,25.26,9,10,3731,4,0,0
1777327276645,12985,2431,-2846,-898,-389,-730,25.26,9,10,3731,4,0,0
1777327276645,13666,1835,-2528,-696,-326,-893,25.26,9,10,3731,4,0,0
1777327276711,14398,1045,-2667,-528,-251,-975,25.26,9,10,3731,4,0,0
1777327276711,14976,805,-2751,-425,-211,-988,25.26,9,10,3731,4,0,0
1777327276745,15915,631,-3104,-418,-215,-1023,25.26,9,10,3731,4,0,0
1777327276745,16527,185,-3287,-456,-273,-1072,25.26,9,10,3731,4,0,0
1777327276745,17388,-240,-3257,-494,-324,-1087,25.26,9,10,3731,4,0,0
1777327276778,18711,-546,-3134,-458,-354,-1025,25.26,9,10,3731,4,0,0
1777327276778,19649,-765,-2981,-386,-329,-912,25.26,9,10,3731,4,0,0
1777327276845,20118,-820,-2929,-320,-254,-770,25.26,9,10,3731,4,0,0
1777327276845,20221,-939,-3373,-296,-172,-639,25.26,9,10,3731,4,0,0
1777327276878,21593,-250,-4236,-336,-96,-471,25.26,9,10,3731,4,0,0
1777327276878,23343,1059,-5033,-408,-88,-287,25.26,9,10,3731,4,0,0
1777327276911,23769,1814,-5308,-534,-99,-203,25.26,9,10,3731,4,0,0
1777327276911,22548,935,-5736,-618,-141,-252,25.26,9,10,3731,4,0,0
1777327276911,20574,-960,-5310,-512,-202,-260,25.26,9,10,3731,4,0,0
1777327276977,19010,-2110,-4266,-189,-142,-128,25.26,9,10,3731,4,0,0
1777327276978,18549,-1842,-4041,253,63,107,25.26,9,10,3731,4,0,0
1777327277011,17637,-1168,-4227,731,241,328,25.26,9,10,3731,4,0,0
1777327277062,16745,-521,-4345,1083,362,471,25.26,9,10,3731,4,0,0
1777327277062,15939,-318,-4495,1221,432,539,25.26,9,10,3731,4,0,0
1777327277062,15421,-547,-4774,1187,449,614,25.26,9,10,3731,4,0,0
1777327277095,14888,-846,-4942,1105,422,760,25.26,9,10,3731,4,0,0
1777327277095,14534,-601,-4572,1031,391,963,25.26,9,10,3731,4,0,0
1777327277095,14170,-78,-5043,923,357,1145,25.26,9,10,3731,4,0,0
1777327277162,14174,796,-4983,870,295,1284,25.26,9,10,3731,4,0,0
1777327277162,14169,1578,-4736,830,273,1338,25.26,9,10,3731,4,0,0
1777327277195,14253,2173,-4590,814,305,1339,25.26,9,10,3731,4,0,0
1777327277195,14655,2660,-4893,816,351,1306,25.26,9,10,3731,4,0,0
1777327277245,14864,2961,-4946,850,383,1269,25.26,9,10,3731,4,0,0
1777327277245,15118,3333,-4990,874,424,1247,25.26,9,10,3731,4,0,0
1777327277295,15294,3757,-5216,848,455,1211,25.26,9,10,3731,4,0,0
1777327277295,15311,3973,-5396,763,440,1146,25.26,9,10,3731,4,0,0
1777327277295,15511,4283,-5334,636,404,1083,25.26,9,10,3731,4,0,0
1777327277329,16259,4859,-5347,504,359,1010,25.26,9,10,3731,4,0,0
1777327277329,17279,6045,-5048,322,327,858,25.26,9,10,3731,4,0,0
1777327277362,17743,6568,-5128,255,344,689,25.26,9,10,3731,4,0,0
1777327277362,17381,6537,-5152,276,323,481,25.26,9,10,3731,4,0,0
1777327277429,16687,6178,-4571,358,273,277,25.26,9,10,3731,4,0,0
1777327277429,17750,7045,-3734,422,300,157,25.26,9,10,3731,4,0,0
1777327277462,18738,8033,-3651,373,354,31,25.26,9,10,3731,4,0,0
1777327277462,18552,8398,-3769,200,353,-182,25.26,9,10,3731,4,0,0
1777327277462,17044,7343,-4223,-91,279,-473,25.26,9,10,3731,4,0,0
1777327277495,15128,5468,-4626,-364,86,-730,25.26,9,10,3731,4,0,0
1777327277495,13966,3892,-4053,-505,-168,-849,25.26,9,10,3731,4,0,0
1777327277562,14063,2974,-2915,-507,-334,-898,25.23,11,12,3736,4,0,0
1777327277562,14402,2423,-2003,-380,-391,-926,25.23,11,12,3736,4,0,0
1777327277695,14723,2117,-1071,-166,-377,-914,25.23,11,12,3736,4,0,0
1777327277695,14479,2022,-512,-31,-277,-847,25.23,11,12,3736,4,0,0
1777327277695,14033,2008,-912,-71,-139,-755,25.23,11,12,3736,4,0,0
1777327277695,13490,2180,-1536,-240,-75,-666,25.23,11,12,3736,4,0,0
1777327277695,12896,2229,-2327,-513,-68,-609,25.23,11,12,3736,4,0,0
1777327277695,12549,2334,-3213,-800,-141,-586,25.23,11,12,3736,4,0,0
1777327277695,12367,2256,-3944,-1038,-281,-615,25.23,11,12,3736,4,0,0
1777327277728,12295,2113,-3974,-1209,-432,-686,25.23,11,12,3736,4,0,0
1777327277795,12144,1802,-3609,-1265,-543,-787,25.23,11,12,3736,4,0,0
1777327277795,12486,1621,-3249,-1179,-559,-881,25.23,11,12,3736,4,0,0
1777327277795,13186,1545,-3081,-1005,-532,-976,25.23,11,12,3736,4,0,0
1777327277828,13800,1389,-2881,-796,-490,-1074,25.23,11,12,3736,4,0,0
1777327277829,14626,1123,-2962,-592,-453,-1156,25.23,11,12,3736,4,0,0
1777327277829,15680,832,-3014,-432,-435,-1203,25.23,11,12,3736,4,0,0
1777327277862,16316,211,-2919,-357,-440,-1202,25.23,11,12,3736,4,0,0
1777327277862,16552,-383,-2722,-333,-430,-1135,25.23,11,12,3736,4,0,0
1777327277928,16818,-685,-2779,-320,-418,-1010,25.23,11,12,3736,4,0,0
1777327277928,17877,-335,-3179,-332,-377,-844,25.23,11,12,3736,4,0,0
1777327277995,19310,477,-3768,-359,-361,-697,25.23,11,12,3736,4,0,0
1777327277995,20126,814,-4109,-404,-383,-614,25.23,11,12,3736,4,0,0
1777327277995,20199,531,-4333,-485,-376,-530,25.23,11,12,3736,4,0,0
1777327277995,20733,547,-4912,-513,-336,-389,25.23,11,12,3736,4,0,0
1777327277995,22609,1732,-5678,-501,-292,-201,25.23,11,12,3736,4,0,0
1777327278095,23815,2956,-5958,-460,-311,-109,25.23,11,12,3736,4,0,0
1777327278195,22958,2633,-5801,-384,-352,-173,25.23,11,12,3736,4,0,0
1777327278195,20764,506,-5154,-240,-376,-281,25.23,11,12,3736,4,0,0
1777327278195,18892,-1353,-3913,43,-312,-228,25.23,11,12,3736,4,0,0
1777327278195,17839,-2003,-3513,468,-129,-22,25.23,11,12,3736,4,0,0
1777327278195,17923,-1279,-2538,981,57,309,25.23,11,12,3736,4,0,0
1777327278195,17872,71,-2313,1282,302,539,25.23,11,12,3736,4,0,0
1777327278195,17630,815,-2850,1339,524,617,25.23,11,12,3736,4,0,0
1777327278195,17668,695,-4016,1260,649,672,25.23,11,12,3736,4,0,0
1777327278228,17260,341,-5081,1093,665,808,25.23,11,12,3736,4,0,0
1777327278228,16463,243,-5291,878,590,1022,25.23,11,12,3736,4,0,0
1777327278261,15762,621,-5594,684,561,1243,25.23,11,12,3736,4,0,0
1777327278261,15105,1201,-5978,496,498,1411,25.23,11,12,3736,4,0,0
1777327278313,14463,1853,-5962,410,394,1515,25.23,11,12,3736,4,0,0
1777327278313,13748,2292,-5605,400,309,1536,25.23,11,12,3736,4,0,0
1777327278378,13222,2726,-5111,437,291,1507,25.23,11,12,3736,4,0,0
1777327278378,13060,3138,-4929,541,332,1437,25.23,11,12,3736,4,0,0
1777327278378,13049,3526,-4744,705,407,1340,25.23,11,12,3736,4,0,0
1777327278396,13363,3959,-4803,862,505,1227,25.23,11,12,3736,4,0,0
1777327278396,13390,4081,-4958,937,582,1091,25.23,11,12,3736,4,0,0
1777327278462,13887,4260,-5337,876,617,959,25.23,11,12,3736,4,0,0
1777327278495,15658,5007,-5824,669,574,826,25.23,11,12,3736,4,0,0
1777327278495,17269,5770,-5858,447,529,753,25.23,11,12,3736,4,0,0
1777327278495,18116,6015,-5894,189,472,665,25.23,11,12,3736,4,0,0
1777327278562,18585,5877,-6046,-54,428,568,25.23,12,13,3741,4,0,0
1777327278562,18559,5546,-6103,-209,352,507,25.23,12,13,3741,4,0,0
1777327278562,17974,5605,-5586,-266,276,473,25.23,12,13,3741,4,0,0
1777327278645,19348,7212,-5417,-278,293,426,25.23,12,13,3741,4,0,0
1777327278678,19926,8342,-5307,-291,266,269,25.23,12,13,3741,4,0,0
1777327278678,18541,8131,-5506,-366,190,-55,25.23,12,13,3741,4,0,0
1777327278728,15933,6298,-5150,-433,15,-423,25.23,12,13,3741,4,0,0
1777327278728,14124,4545,-4432,-396,-151,-676,25.23,12,13,3741,4,0,0
1777327278728,13310,3564,-3395,-250,-261,-806,25.23,12,13,3741,4,0,0
1777327278728,13375,3401,-2241,-35,-291,-891,25.23,12,13,3741,4,0,0
1777327278728,14104,3283,-1760,178,-254,-987,25.23,12,13,3741,4,0,0
1777327278728,14649,2821,-1476,327,-214,-1060,25.23,12,13,3741,4,0,0
1777327278778,14205,2084,-1382,353,-174,-1042,25.23,12,13,3741,4,0,0
1777327278778,13512,1835,-1426,209,-155,-938,25.23,12,13,3741,4,0,0
1777327278845,12918,1646,-1627,-99,-161,-833,25.23,12,13,3741,4,0,0
1777327278845,12128,1359,-1812,-451,-176,-726,25.23,12,13,3741,4,0,0
1777327278845,11728,1332,-2426,-774,-210,-616,25.23,12,13,3741,4,0,0
1777327278845,11863,1817,-3001,-1023,-284,-559,25.23,12,13,3741,4,0,0
1777327278911,12102,2173,-3284,-1205,-376,-587,25.23,12,13,3741,4,0,0
1777327278911,12291,2080,-3294,-1287,-449,-673,25.23,12,13,3741,4,0,0
1777327278911,12599,1870,-3248,-1268,-474,-773,25.23,12,13,3741,4,0,0
1777327278945,13177,1717,-3255,-1152,-465,-841,25.23,12,13,3741,4,0,0
1777327278945,13935,1593,-3393,-1005,-438,-896,25.23,12,13,3741,4,0,0
1777327279011,14560,1425,-3387,-869,-436,-923,25.23,12,13,3741,4,0,0
1777327279011,15201,1323,-3396,-734,-411,-938,25.23,12,13,3741,4,0,0
1777327279145,15482,1080,-3332,-608,-392,-935,25.23,12,13,3741,4,0,0
1777327279145,15975,1138,-3322,-531,-388,-902,25.23,12,13,3741,4,0,0
1777327279145,17213,1626,-3488,-509,-383,-877,25.23,12,13,3741,4,0,0
1777327279145,18638,2105,-3673,-508,-401,-893,25.23,12,13,3741,4,0,0
1777327279145,19665,1962,-3829,-512,-417,-945,25.23,12,13,3741,4,0,0
1777327279145,20207,1232,-3970,-481,-416,-963,25.23,12,13,3741,4,0,0
1777327279145,20099,293,-4053,-432,-402,-894,25.23,12,13,3741,4,0,0
1777327279178,20892,259,-4001,-368,-327,-713,25.23,12,13,3741,4,0,0
1777327279178,23210,1876,-4457,-302,-204,-471,25.23,12,13,3741,4,0,0
1777327279211,24267,2962,-4848,-246,-129,-374,25.23,12,13,3741,4,0,0
1777327279212,23213,2030,-5125,-224,-109,-437,25.23,12,13,3741,4,0,0
1777327279261,20467,-441,-4893,-147,-137,-460,25.23,12,13,3741,4,0,0
1777327279261,19068,-1819,-4169,61,-77,-283,25.23,12,13,3741,4,0,0
1777327279261,18830,-1823,-3716,431,61,24,25.23,12,13,3741,4,0,0
1777327279295,18664,-949,-3133,885,215,365,25.23,12,13,3741,4,0,0
1777327279295,18116,-18,-2917,1164,421,580,25.23,12,13,3741,4,0,0
1777327279362,17511,294,-3679,1185,598,695,25.23,12,13,3741,4,0,0
1777327279362,16948,51,-4861,1072,654,857,25.23,12,13,3741,4,0,0
1777327279395,16312,357,-5381,897,586,1107,25.23,12,13,3741,4,0,0
1777327279395,15538,741,-5694,696,507,1332,25.23,12,13,3741,4,0,0
1777327279461,15002,1414,-5793,506,380,1501,25.23,12,13,3741,4,0,0
1777327279461,14857,2170,-5627,372,220,1589,25.23,12,13,3741,4,0,0
1777327279461,14096,2558,-4901,321,126,1612,25.23,12,13,3741,4,0,0
1777327279495,13915,2897,-4606,363,153,1606,25.23,12,13,3741,4,0,0
1777327279495,13990,3316,-4624,482,229,1577,25.23,12,13,3741,4,0,0
1777327279545,13844,3776,-4671,636,320,1535,25.23,14,15,3741,4,0,0
1777327279611,13935,4284,-4865,766,421,1467,25.23,14,15,3741,4,0,0
1777327279611,14254,4825,-5243,849,511,1322,25.23,14,15,3741,4,0,0
1777327279611,14432,4924,-5428,810,519,1214,25.23,14,15,3741,4,0,0
1777327279611,14759,5246,-5327,751,508,1110,25.23,14,15,3741,4,0,0
1777327279611,15562,5830,-5231,672,515,1002,25.23,14,15,3741,4,0,0
1777327279611,16465,6440,-5400,536,523,874,25.23,14,15,3741,4,0,0
1777327279655,16960,6742,-5668,344,477,708,25.23,14,15,3741,4,0,0
1777327279655,17127,6581,-5959,123,375,530,25.23,14,15,3741,4,0,0
1777327279728,17024,6300,-5789,-72,218,373,25.23,14,15,3741,4,0,0
1777327279761,16937,6356,-4908,-185,87,261,25.23,14,15,3741,4,0,0
1777327279761,17895,7377,-3960,-249,75,159,25.23,14,15,3741,4,0,0
1777327279761,18839,8048,-3903,-326,141,-15,25.23,14,15,3741,4,0,0
1777327279794,18813,8166,-3951,-427,154,-285,25.23,14,15,3741,4,0,0
1777327279794,17587,7104,-4482,-583,122,-565,25.23,14,15,3741,4,0,0
1777327279794,15454,5296,-4866,-683,-27,-783,25.23,14,15,3741,4,0,0
1777327279861,14332,3932,-4357,-676,-232,-906,25.23,14,15,3741,4,0,0
1777327279861,14313,3308,-3296,-546,-388,-990,25.23,14,15,3741,4,0,0
1777327279895,14848,3017,-2408,-292,-441,-1070,25.23,14,15,3741,4,0,0
1777327279895,15178,2905,-1463,15,-424,-1128,25.23,14,15,3741,4,0,0
1777327280028,14522,2663,-1084,200,-323,-1128,25.23,14,15,3741,4,0,0
1777327280028,13460,2647,-1527,166,-208,-1064,25.23,14,15,3741,4,0,0
1777327280028,12932,2977,-2627,-47,-163,-980,25.23,14,15,3741,4,0,0
1777327280028,12526,2965,-3421,-371,-248,-923,25.23,14,15,3741,4,0,0
1777327280028,12212,2606,-3530,-721,-351,-871,25.23,14,15,3741,4,0,0
1777327280028,12185,2601,-3410,-1071,-406,-838,25.23,14,15,3741,4,0,0
1777327280028,12029,2457,-3743,-1284,-428,-831,25.23,14,15,3741,4,0,0
1777327280061,12289,2642,-4134,-1379,-437,-844,25.23,14,15,3741,4,0,0
1777327280061,12918,2952,-4319,-1334,-435,-913,25.23,14,15,3741,4,0,0
1777327280128,13392,3057,-4645,-1184,-434,-1022,25.23,14,15,3741,4,0,0
1777327280195,14124,2970,-4706,-968,-449,-1142,25.23,14,15,3741,4,0,0
1777327280195,14840,2658,-4334,-750,-461,-1254,25.23,14,15,3741,4,0,0
1777327280195,15290,2044,-3951,-549,-428,-1344,25.23,14,15,3741,4,0,0
1777327280195,15441,1241,-3651,-342,-387,-1382,25.23,14,15,3741,4,0,0
1777327280228,15568,670,-3546,-177,-366,-1335,25.23,14,15,3741,4,0,0
1777327280228,16224,752,-3633,-99,-344,-1219,25.23,14,15,3741,4,0,0
1777327280294,17633,1257,-3825,-62,-335,-1092,25.23,14,15,3741,4,0,0
1777327280295,19056,1764,-3840,-39,-351,-977,25.23,14,15,3741,4,0,0
1777327280295,19860,1731,-3795,-43,-345,-882,25.23,14,15,3741,4,0,0
1777327280295,19823,944,-3696,-90,-317,-766,25.23,14,15,3741,4,0,0
1777327280394,19655,145,-4060,-138,-242,-544,25.23,14,15,3741,4,0,0
1777327280394,21336,1346,-4751,-194,-115,-181,25.23,14,15,3741,4,0,0
1777327280428,23657,3558,-5870,-289,-37,142,25.23,14,15,3741,4,0,0
1777327280428,24656,4867,-6764,-407,-68,242,25.23,14,15,3741,4,0,0
1777327280428,23215,3880,-7126,-453,-185,130,25.23,14,15,3741,4,0,0
1777327280428,19734,1320,-6157,-343,-325,6,25.23,14,15,3741,4,0,0
1777327280428,17397,-332,-4788,-4,-280,72,25.23,14,15,3741,4,0,0
1777327280578,16716,-510,-4042,566,-96,328,25.23,14,15,3741,4,0,0
1777327280578,17106,612,-3310,1197,139,641,25.23,14,15,3741,4,0,0
1777327280578,17089,1809,-3119,1574,413,799,25.23,14,15,3741,4,0,0
1777327280578,17158,2407,-3488,1642,651,831,25.21,16,17,3741,4,0,0
1777327280578,16731,1809,-4632,1517,789,893,25.21,16,17,3741,4,0,0
1777327280578,16022,1588,-5451,1349,834,1064,25.21,16,17,3741,4,0,0
1777327280628,15110,1799,-5436,1179,805,1304,25.21,16,17,3741,4,0,0
1777327280628,15105,2712,-6108,1032,763,1502,25.21,16,17,3741,4,0,0
1777327280628,15312,3436,-6628,834,649,1589,25.21,16,17,3741,4,0,0
1777327280646,14894,3882,-6439,672,467,1610,25.21,16,17,3741,4,0,0
1777327280646,14011,3767,-5761,567,372,1599,25.21,16,17,3741,4,0,0
1777327280695,13475,4145,-5164,573,432,1586,25.21,16,17,3741,4,0,0
1777327280695,13199,4526,-5396,635,498,1532,25.21,16,17,3741,4,0,0
1777327280695,12998,5032,-5406,711,547,1433,25.21,16,17,3741,4,0,0
1777327280761,13161,5351,-5706,764,588,1296,25.21,16,17,3741,4,0,0
1777327280761,13328,5606,-5843,763,576,1145,25.21,16,17,3741,4,0,0
1777327280894,13436,5701,-5812,686,542,981,25.21,16,17,3741,4,0,0
1777327280894,13705,5887,-5749,571,484,810,25.21,16,17,3741,4,0,0
1777327280894,14644,6260,-5839,453,417,647,25.21,16,17,3741,4,0,0
1777327280894,16465,6940,-5725,324,352,497,25.21,16,17,3741,4,0,0
1777327280894,18064,7448,-5498,215,286,346,25.21,16,17,3741,4,0,0
1777327280894,18206,7020,-5030,105,220,198,25.21,16,17,3741,4,0,0
1777327280894,17259,6439,-4375,-25,201,142,25.21,16,17,3741,4,0,0
1777327280928,17135,6886,-4238,-166,221,163,25.21,16,17,3741,4,0,0
1777327280928,18506,8312,-4324,-331,215,120,25.21,16,17,3741,4,0,0
1777327280961,19324,9029,-4655,-537,157,-80,25.21,16,17,3741,4,0,0
1777327281027,19128,8848,-4819,-800,60,-383,25.21,16,17,3741,4,0,0
1777327281027,16768,7065,-4689,-1112,-54,-684,25.21,16,17,3741,4,0,0
1777327281027,13697,4523,-4807,-1281,-164,-896,25.21,16,17,3741,4,0,0
1777327281061,12674,3522,-4416,-1246,-286,-950,25.21,16,17,3741,4,0,0
1777327281061,13017,3563,-3790,-1063,-362,-977,25.21,16,17,3741,4,0,0
1777327281061,13616,3877,-2820,-735,-375,-1095,25.21,16,17,3741,4,0,0
1777327281194,14592,3951,-2271,-410,-273,-1295,25.21,16,17,3741,4,0,0
1777327281194,14821,3115,-2232,-184,-138,-1476,25.21,16,17,3741,4,0,0
1777327281194,14578,2147,-2676,-129,-18,-1517,25.21,16,17,3741,4,0,0
1777327281194,14272,1537,-3344,-241,44,-1418,25.21,16,17,3741,4,0,0
1777327281194,14012,1316,-4184,-490,27,-1244,25.21,16,17,3741,4,0,0
1777327281194,13788,1193,-4824,-798,-65,-1076,25.21,16,17,3741,4,0,0
1777327281245,13423,1325,-5034,-1101,-231,-948,25.21,16,17,3741,4,0,0
1777327281245,13290,1528,-5106,-1278,-373,-898,25.21,16,17,3741,4,0,0
1777327281245,13759,1795,-4937,-1326,-466,-910,25.21,16,17,3741,4,0,0
1777327281277,14242,1752,-4570,-1200,-515,-960,25.21,16,17,3741,4,0,0
1777327281277,14494,1582,-4218,-960,-504,-1024,25.21,16,17,3741,4,0,0
1777327281344,14882,1368,-3659,-679,-445,-1068,25.21,16,17,3741,4,0,0
1777327281344,15027,928,-3260,-377,-355,-1075,25.21,16,17,3741,4,0,0
1777327281378,15411,543,-3170,-105,-233,-1026,25.21,16,17,3741,4,0,0
1777327281378,15673,234,-3250,111,-177,-938,25.21,16,17,3741,4,0,0
1777327281411,16003,111,-3156,228,-171,-824,25.21,16,17,3741,4,0,0
1777327281411,16521,92,-3001,257,-162,-697,25.21,16,17,3741,4,0,0
1777327281411,17042,324,-2745,266,-151,-532,25.21,16,17,3741,4,0,0
1777327281477,18199,620,-2369,221,-95,-380,25.21,16,17,3741,4,0,0
1777327281478,18885,582,-2489,164,1,-238,25.21,16,17,3741,4,0,0
1777327281511,19068,379,-3201,82,110,-54,25.21,16,17,3741,4,0,0
1777327281511,20004,929,-4376,-48,198,178,25.21,16,17,3741,4,0,0
1777327281577,22399,2620,-6017,-196,213,444,25.21,16,19,3741,4,0,0
1777327281577,23765,4142,-7005,-322,83,594,25.21,16,19,3741,4,0,0
1777327281611,22947,4081,-6887,-398,-111,562,25.21,16,19,3741,4,0,0
1777327281611,20458,2478,-5920,-368,-231,460,25.21,16,19,3741,4,0,0
1777327281644,18351,1055,-5033,-139,-188,481,25.21,16,19,3741,4,0,0
1777327281644,17167,795,-4208,346,-44,615,25.21,16,19,3741,4,0,0
1777327281644,16797,1518,-3948,952,167,775,25.21,16,19,3741,4,0,0
1777327281744,17313,2809,-4125,1426,396,852,25.21,16,19,3741,4,0,0
1777327281744,17566,3399,-4531,1593,545,788,25.21,16,19,3741,4,0,0
1777327281744,17301,2877,-4995,1544,604,714,25.21,16,19,3741,4,0,0
1777327281744,16529,1977,-5378,1418,627,782,25.21,16,19,3741,4,0,0
1777327281877,15911,1623,-5630,1292,648,978,25.21,16,19,3741,4,0,0
1777327281877,15544,1942,-6260,1123,647,1207,25.21,16,19,3741,4,0,0
1777327281877,14980,2807,-6778,867,473,1428,25.21,16,19,3741,4,0,0
1777327281877,13961,3014,-6214,701,312,1485,25.21,16,19,3741,4,0,0
1777327281877,13285,3348,-5591,622,253,1499,25.21,16,19,3741,4,0,0
1777327281877,13115,3900,-5652,663,244,1484,25.21,16,19,3741,4,0,0
1777327281877,12981,4446,-5185,765,244,1424,25.21,16,19,3741,4,0,0
1777327281978,12665,4844,-4698,902,320,1307,25.21,16,19,3741,4,0,0
1777327281978,12743,5254,-4786,1021,438,1155,25.21,16,19,3741,4,0,0
1777327281978,13257,5631,-5241,1041,514,989,25.21,16,19,3741,4,0,0
1777327282010,13902,5952,-5553,982,494,802,25.21,16,19,3741,4,0,0
1777327282010,14063,5849,-5456,869,416,615,25.21,16,19,3741,4,0,0
1777327282010,14523,5859,-5130,692,364,467,25.21,16,19,3741,4,0,0
1777327282010,15698,6308,-5182,478,357,367,25.21,16,19,3741,4,0,0
1777327282043,16863,6819,-5539,247,318,252,25.21,16,19,3741,4,0,0
1777327282043,17395,6892,-5686,11,209,84,25.21,16,19,3741,4,0,0
1777327282110,17066,6383,-5311,-173,77,-78,25.21,16,19,3741,4,0,0
1777327282110,17364,6408,-4792,-280,-2,-174,25.21,16,19,3741,4,0,0
1777327282143,18523,7101,-4474,-331,-20,-253,25.21,16,19,3741,4,0,0
1777327282144,18820,7373,-4064,-382,-25,-399,25.21,16,19,3741,4,0,0
1777327282144,17971,6786,-4002,-503,6,-574,25.21,16,19,3741,4,0,0
1777327282177,16730,5786,-4607,-632,-6,-728,25.21,16,19,3741,4,0,0
1777327282177,15333,4579,-4953,-691,-147,-857,25.21,16,19,3741,4,0,0
1777327282244,14757,3808,-4508,-658,-340,-969,25.21,16,19,3741,4,0,0
1777327282244,14892,3529,-3618,-559,-492,-1059,25.21,16,19,3741,4,0,0
1777327282278,15345,3384,-2778,-372,-571,-1190,25.21,16,19,3741,4,0,0
1777327282278,15766,3032,-1865,-93,-573,-1313,25.21,16,19,3741,4,0,0
1777327282311,15109,2184,-1197,154,-494,-1361,25.21,16,19,3741,4,0,0
1777327282377,13890,1668,-1006,264,-370,-1277,25.21,16,19,3741,4,0,0
1777327282377,13403,1659,-1508,174,-268,-1131,25.21,16,19,3741,4,0,0
1777327282377,12941,1509,-1987,-52,-251,-987,25.21,16,19,3741,4,0,0
1777327282377,12490,1578,-2425,-357,-291,-827,25.21,16,19,3741,4,0,0
1777327282444,12543,1932,-2394,-674,-355,-719,25.21,16,19,3741,4,0,0
1777327282511,12597,2196,-2737,-927,-415,-681,25.21,16,19,3741,4,0,0
1777327282511,12869,2543,-3040,-1048,-458,-688,25.21,16,19,3741,4,0,0
1777327282511,13208,2836,-3190,-1090,-489,-738,25.21,16,19,3741,4,0,0
1777327282543,13706,2999,-3053,-1058,-479,-829,25.21,16,19,3741,4,0,0
1777327282543,14214,2874,-3017,-917,-438,-932,25.21,16,19,3741,4,0,0
1777327282543,14589,2583,-3011,-712,-372,-1016,25.19,18,20,3743,4,0,0
1777327282543,14954,2124,-3181,-519,-315,-1073,25.19,18,20,3743,4,0,0
1777327282544,15172,1635,-3260,-372,-284,-1075,25.19,18,20,3743,4,0,0
1777327282627,15670,1450,-3332,-268,-280,-1028,25.19,18,20,3743,4,0,0
1777327282627,16461,1567,-3368,-190,-287,-958,25.19,18,20,3743,4,0,0
1777327282627,17717,1962,-3278,-146,-287,-867,25.19,18,20,3743,4,0,0
1777327282627,18783,2169,-3209,-149,-254,-774,25.19,18,20,3743,4,0,0
1777327282693,19306,2065,-3745,-208,-177,-665,25.19,18,20,3743,4,0,0
1777327282693,19579,1864,-4885,-317,-115,-515,25.19,18,20,3743,4,0,0
1777327282694,21630,2953,-6111,-429,-73,-280,25.19,18,20,3743,4,0,0
1777327282760,24539,4831,-7344,-529,-59,-13,25.19,18,20,3743,4,0,0
1777327282760,25206,5650,-7930,-593,-158,101,25.19,18,20,3743,4,0,0
1777327282760,22931,4306,-7308,-590,-302,40,25.19,18,20,3743,4,0,0
1777327282760,20214,2123,-6327,-413,-312,3,25.19,18,20,3743,4,0,0
1777327282877,17962,629,-5251,70,-216,131,25.19,18,20,3743,4,0,0
1777327283010,16099,173,-4137,740,-51,354,25.19,18,20,3743,4,0,0
1777327283010,15705,797,-3142,1340,192,602,25.19,18,20,3743,4,0,0
1777327283010,15587,1814,-2866,1644,467,748,25.19,18,20,3743,4,0,0
1777327283010,15736,2427,-3255,1688,702,800,25.19,18,20,3743,4,0,0
1777327283010,16287,2783,-4389,1594,842,859,25.19,18,20,3743,4,0,0
1777327283010,15789,2657,-5496,1296,824,1048,25.19,18,20,3743,4,0,0
1777327283010,15157,2659,-5586,1056,786,1220,25.19,18,20,3743,4,0,0
1777327283010,14876,3001,-6426,780,683,1386,25.19,18,20,3743,4,0,0
1777327283010,14706,3527,-6786,564,518,1507,25.19,18,20,3743,4,0,0
1777327283060,14827,4155,-6729,406,347,1558,25.19,18,20,3743,4,0,0
1777327283060,14539,4330,-5986,366,208,1567,25.19,18,20,3743,4,0,0
1777327283060,14005,4498,-5160,418,185,1559,25.19,18,20,3743,4,0,0
1777327283060,13735,4876,-4757,503,284,1551,25.19,18,20,3743,4,0,0
1777327283093,13645,5452,-4838,625,411,1505,25.19,18,20,3743,4,0,0
1777327283127,13716,6088,-5227,753,508,1391,25.19,18,20,3743,4,0,0
1777327283193,13520,6313,-5565,819,531,1204,25.19,18,20,3743,4,0,0
1777327283193,13051,6222,-5603,778,482,995,25.19,18,20,3743,4,0,0
1777327283193,13020,5900,-5452,679,399,811,25.19,18,20,3743,4,0,0
1777327283193,13401,5883,-4977,572,332,678,25.19,18,20,3743,4,0,0
1777327283327,14172,6454,-4525,459,323,593,25.19,18,20,3743,4,0,0
1777327283327,15287,7359,-4613,319,343,476,25.19,18,20,3743,4,0,0
1777327283327,15896,7707,-4850,142,314,293,25.19,18,20,3743,4,0,0
1777327283327,16028,7585,-4934,-59,238,84,25.19,18,20,3743,4,0,0
1777327283327,16015,7156,-4881,-246,134,-114,25.19,18,20,3743,4,0,0
1777327283327,16659,7284,-4362,-374,53,-270,25.19,18,20,3743,4,0,0
1777327283327,18056,8174,-4146,-486,44,-398,25.19,18,20,3743,4,0,0
1777327283374,19023,8743,-4278,-602,42,-583,25.19,18,20,3743,4,0,0
1777327283374,19501,8710,-4817,-751,33,-824,25.19,18,20,3743,4,0,0
1777327283408,16684,6416,-5211,-870,-105,-1101,25.19,18,20,3743,4,0,0
1777327283408,14244,3984,-4923,-862,-273,-1308,25.19,18,20,3743,4,0,0
1777327283408,13790,3014,-4260,-746,-400,-1348,25.19,18,20,3743,4,0,0
1777327283541,14000,3177,-3269,-541,-474,-1337,25.19,18,20,3743,4,0,0
1777327283541,15321,4120,-2466,-293,-462,-1402,25.19,18,20,3743,4,0,0
1777327283541,16153,4322,-2088,-104,-385,-1549,25.19,18,20,3743,4,0,0
1777327283541,15912,3327,-2273,-37,-285,-1659,25.19,18,20,3743,4,0,0
1777327283541,15073,2133,-2740,-82,-195,-1608,25.19,19,22,3745,4,0,0
1777327283541,14235,1278,-3309,-225,-152,-1390,25.19,19,22,3745,4,0,0
1777327283591,13551,1130,-3689,-467,-161,-1085,25.19,19,22,3745,4,0,0
1777327283591,13295,1563,-4488,-793,-223,-827,25.19,19,22,3745,4,0,0
1777327283591,13588,2395,-5026,-1106,-336,-671,25.19,19,22,3745,4,0,0
1777327283624,13531,2748,-5214,-1312,-469,-622,25.19,19,22,3745,4,0,0
1777327283624,13615,2759,-5057,-1415,-560,-626,25.19,19,22,3745,4,0,0
1777327283773,13865,2764,-4834,-1357,-583,-626,25.19,19,22,3745,4,0,0
1777327283773,14075,2921,-4858,-1174,-566,-633,25.19,19,22,3745,4,0,0
1777327283806,14446,2935,-4518,-942,-554,-686,25.19,19,22,3745,4,0,0
1777327283906,14355,2327,-4131,-722,-521,-738,25.19,19,22,3745,4,0,0
1777327284006,14334,1662,-3923,-533,-466,-724,25.19,19,22,3745,4,0,0
1777327284006,14531,1301,-3927,-395,-424,-645,25.19,19,22,3745,4,0,0
1777327284006,15025,1309,-3883,-277,-416,-535,25.19,19,22,3745,4,0,0
1777327284006,15980,1747,-3700,-183,-412,-413,25.19,19,22,3745,4,0,0
1777327284006,17252,2201,-3697,-130,-409,-307,25.19,19,22,3745,4,0,0
1777327284006,17904,2153,-3689,-145,-416,-214,25.19,19,22,3745,4,0,0
1777327284006,17983,1639,-3921,-202,-406,-79,25.19,19,22,3745,4,0,0
1777327284006,18545,1571,-4366,-245,-401,141,25.19,19,22,3745,4,0,0
1777327284006,21658,3637,-5021,-305,-328,465,25.19,19,22,3745,4,0,0
1777327284039,22972,5664,-5480,-399,-336,740,25.19,19,22,3745,4,0,0
1777327284039,22251,6182,-5619,-516,-366,768,25.19,19,22,3745,4,0,0
1777327284039,20856,5176,-5875,-561,-370,665,25.19,19,22,3745,4,0,0
1777327284039,19072,3706,-5668,-418,-381,623,25.19,19,22,3745,4,0,0
1777327284039,18060,2796,-5145,-75,-375,687,25.19,19,22,3745,4,0,0
1777327284039,18054,2876,-3900,431,-310,816,25.19,19,22,3745,4,0,0
1777327284039,18476,3260,-2574,938,-11,999,25.19,19,22,3745,4,0,0
1777327284072,18615,3065,-2599,999,231,1138,25.19,19,22,3745,4,0,0
1777327284072,18253,3037,-3208,902,437,1363,25.19,19,22,3745,4,0,0
1777327284172,17962,3354,-4645,709,556,1621,25.19,19,22,3745,4,0,0
1777327284172,17563,3843,-5550,516,514,1859,25.19,19,22,3745,4,0,0
1777327284172,16840,4416,-5949,325,367,2041,25.19,19,22,3745,4,0,0
1777327284172,16102,4858,-5697,170,175,2130,25.19,19,22,3745,4,0,0
1777327284172,15288,5278,-4791,68,32,2152,25.19,19,22,3745,4,0,0
1777327284222,14705,5700,-3811,73,6,2109,25.19,19,22,3745,4,0,0
1777327284222,14364,6265,-3287,180,78,2010,25.19,19,22,3745,4,0,0
1777327284256,14070,6615,-3132,301,202,1856,25.19,19,22,3745,4,0,0
1777327284256,13729,6734,-3143,386,322,1670,25.19,19,22,3745,4,0,0
1777327284289,13727,6837,-3430,388,410,1491,25.19,19,22,3745,4,0,0
1777327284289,13187,6788,-3282,339,431,1316,25.19,19,22,3745,4,0,0
1777327284289,12777,6705,-3167,195,452,1135,25.19,19,22,3745,4,0,0
1777327284389,12603,6662,-3099,0,430,946,25.19,19,22,3745,4,0,0
1777327284389,12514,6618,-2956,-219,425,776,25.19,19,22,3745,4,0,0
1777327284389,12974,6903,-3081,-432,435,638,25.19,19,22,3745,4,0,0
1777327284389,12976,7210,-3346,-644,423,489,25.19,19,22,3745,4,0,0
1777327284455,12815,7008,-3389,-849,389,290,25.19,19,22,3745,4,0,0
1777327284456,12386,6575,-3435,-1038,337,69,25.19,19,22,3745,4,0,0
1777327284489,13654,6846,-3398,-1160,303,-127,25.19,19,22,3745,4,0,0
1777327284489,15944,7950,-3521,-1231,309,-262,25.19,19,22,3745,4,0,0
1777327284489,17528,8959,-3611,-1322,330,-410,25.19,19,22,3745,4,0,0
1777327284522,17993,9186,-4332,-1571,365,-625,25.17,20,23,3743,4,0,0
1777327284522,17366,8346,-5367,-1951,332,-888,25.17,20,23,3743,4,0,0
1777327284574,16610,6582,-6404,-2293,189,-1144,25.17,20,23,3743,4,0,0
1777327284574,15943,4877,-6840,-2415,-43,-1286,25.17,20,23,3743,4,0,0
1777327284622,16551,4093,-6169,-2335,-277,-1331,25.17,20,23,3743,4,0,0
1777327284622,17108,3771,-4922,-2147,-390,-1349,25.17,20,23,3743,4,0,0
1777327284690,17770,3680,-3948,-1931,-356,-1344,25.17,20,23,3743,4,0,0
1777327284690,17586,3211,-3478,-1796,-216,-1271,25.17,20,23,3743,4,0,0
1777327284690,16805,2783,-3843,-1798,-43,-1126,25.17,20,23,3743,4,0,0
1777327284722,15919,2751,-4822,-1952,66,-939,25.17,20,23,3743,4,0,0
1777327284722,15216,2951,-6231,-2212,69,-778,25.17,20,23,3743,4,0,0
1777327284889,14857,3221,-7199,-2487,-70,-674,25.17,20,23,3743,4,0,0
1777327284889,14352,3287,-7360,-2722,-256,-658,25.17,20,23,3743,4,0,0
1777327284889,14257,3237,-7361,-2831,-405,-682,25.17,20,23,3743,4,0,0
1777327284889,14578,3159,-7308,-2753,-495,-710,25.17,20,23,3743,4,0,0
1777327284889,14973,3020,-7038,-2563,-536,-740,25.17,20,23,3743,4,0,0
1777327284889,15081,2808,-6897,-2382,-513,-753,25.17,20,23,3743,4,0,0
1777327284889,15256,2615,-7268,-2244,-484,-756,25.17,20,23,3743,4,0,0
1777327284889,15300,2286,-7702,-2137,-518,-749,25.17,20,23,3743,4,0,0
1777327284889,15028,1851,-7626,-2033,-607,-725,25.17,20,23,3743,4,0,0
1777327285022,14348,1275,-7231,-1866,-698,-701,25.17,20,23,3743,4,0,0
1777327285022,13771,809,-6483,-1646,-768,-680,25.17,20,23,3743,4,0,0
1777327285022,13649,594,-5709,-1423,-779,-680,25.17,20,23,3743,4,0,0
1777327285022,14416,661,-5290,-1195,-742,-681,25.17,20,23,3743,4,0,0
1777327285022,15887,789,-5465,-975,-697,-660,25.17,20,23,3743,4,0,0
1777327285022,17411,712,-5822,-837,-708,-603,25.17,20,23,3743,4,0,0
1777327285022,18033,110,-5972,-812,-790,-491,25.17,20,23,3743,4,0,0
1777327285122,17999,-614,-6013,-891,-900,-286,25.17,20,23,3743,4,0,0
1777327285122,18273,-509,-5919,-1009,-1018,20,25.17,20,23,3743,4,0,0
1777327285155,21409,1932,-6167,-1117,-1047,375,25.17,20,23,3743,4,0,0
1777327285155,24887,5013,-6343,-1196,-1039,620,25.17,20,23,3743,4,0,0
1777327285256,22270,4033,-6439,-1239,-1128,463,25.17,20,23,3743,4,0,0
1777327285256,18308,331,-5889,-1078,-1184,284,25.17,20,23,3743,4,0,0
1777327285256,16392,-1580,-5002,-673,-1201,403,25.17,20,23,3743,4,0,0
1777327285256,16105,-1881,-3813,-30,-1229,713,25.17,20,23,3743,4,0,0
1777327285256,16998,-503,-1756,571,-1212,1053,25.17,20,23,3743,4,0,0
1777327285256,18266,998,-836,868,-1036,1229,25.17,20,23,3743,4,0,0
1777327285256,20178,2578,-248,983,-831,1357,25.17,20,23,3743,4,0,0
1777327285389,21289,3350,-134,937,-557,1503,25.17,20,23,3743,4,0,0
1777327285389,21404,3986,-609,828,-238,1673,25.17,20,23,3743,4,0,0
1777327285389,21418,4759,-1912,804,46,1866,25.17,20,23,3743,4,0,0
1777327285389,21538,5758,-3292,846,171,2022,25.17,20,23,3743,4,0,0
1777327285389,20139,5980,-3099,857,147,2082,25.17,20,23,3743,4,0,0
1777327285390,18880,5974,-3031,787,113,2076,25.17,20,23,3743,4,0,0
1777327285390,17920,5866,-2663,690,96,2063,25.17,20,23,3743,4,0,0
1777327285422,16744,5961,-1898,613,127,2033,25.17,20,23,3743,4,0,0
1777327285422,15590,6222,-1452,593,245,1967,25.17,20,23,3743,4,0,0
1777327285489,14979,6674,-1475,590,383,1835,25.17,20,23,3743,4,0,0
1777327285489,14355,6757,-1680,554,489,1641,25.17,20,23,3743,4,0,0
1777327285522,13889,6662,-1856,445,542,1421,25.17,20,23,3743,4,0,0
1777327285522,13368,6261,-1844,255,567,1203,25.17,20,23,3743,4,0,0
1777327285573,12798,5827,-1788,51,599,997,25.17,21,25,3741,4,0,0
1777327285573,12551,5497,-1931,-177,609,831,25.17,21,25,3741,4,0,0
1777327285606,12409,5219,-2318,-425,601,693,25.17,21,25,3741,4,0,0
1777327285606,12360,4938,-2443,-659,554,596,25.17,21,25,3741,4,0,0
1777327285606,12231,4964,-2515,-896,499,518,25.17,21,25,3741,4,0,0
1777327285672,12804,5262,-2686,-1157,449,434,25.17,21,25,3741,4,0,0
1777327285672,13369,5500,-2840,-1428,388,328,25.17,21,25,3741,4,0,0
1777327285739,13971,5757,-2945,-1656,337,211,25.17,21,25,3741,4,0,0
1777327285739,14828,5933,-2849,-1818,291,49,25.17,21,25,3741,4,0,0
1777327285739,16439,6484,-2467,-1940,327,-108,25.17,21,25,3741,4,0,0
1777327285739,19510,8447,-2761,-2093,518,-168,25.17,21,25,3741,4,0,0
1777327285739,20682,9262,-3967,-2352,674,-272,25.17,21,25,3741,4,0,0
1777327285839,19684,8489,-6112,-2706,708,-564,25.17,21,25,3741,4,0,0
1777327285839,17759,6185,-7332,-3039,506,-895,25.17,21,25,3741,4,0,0
1777327285839,16166,4033,-7528,-3186,212,-1035,25.17,21,25,3741,4,0,0
1777327285839,15136,2828,-6458,-3127,-95,-1055,25.17,21,25,3741,4,0,0
1777327285889,15291,2896,-4924,-2812,-227,-1055,25.17,21,25,3741,4,0,0
1777327285889,16070,3449,-3486,-2386,-180,-1125,25.17,21,25,3741,4,0,0
1777327285922,17131,3583,-3286,-2060,18,-1272,25.17,21,25,3741,4,0,0
1777327285922,17590,2910,-3833,-1853,226,-1347,25.17,21,25,3741,4,0,0
1777327285922,16927,1958,-4931,-1792,378,-1265,25.17,21,25,3741,4,0,0
1777327285956,16197,1568,-6336,-1927,419,-1059,25.17,21,25,3741,4,0,0
1777327285956,15809,1381,-7747,-2184,337,-815,25.17,21,25,3741,4,0,0
1777327286022,15366,1278,-8589,-2522,108,-611,25.17,21,25,3741,4,0,0
1777327286072,14347,1098,-8802,-2746,-198,-427,25.17,21,25,3741,4,0,0
1777327286072,13769,992,-8459,-2826,-480,-270,25.17,21,25,3741,4,0,0
1777327286072,13528,1013,-7691,-2752,-680,-140,25.17,21,25,3741,4,0,0
1777327286155,13433,1413,-6943,-2507,-791,-21,25.17,21,25,3741,4,0,0
1777327286155,13634,2247,-6151,-2185,-822,50,25.17,21,25,3741,4,0,0
1777327286155,13672,2928,-5522,-1896,-796,25,25.17,21,25,3741,4,0,0
1777327286155,13607,3064,-5230,-1705,-761,-88,25.17,21,25,3741,4,0,0
1777327286155,13560,2803,-5256,-1582,-780,-209,25.17,21,25,3741,4,0,0
1777327286188,13517,2375,-4906,-1508,-874,-300,25.17,21,25,3741,4,0,0
1777327286189,13630,2016,-4363,-1463,-977,-350,25.17,21,25,3741,4,0,0
1777327286289,13905,1937,-3614,-1373,-1044,-381,25.17,21,25,3741,4,0,0
1777327286289,14688,2188,-2705,-1197,-1056,-446,25.17,21,25,3741,4,0,0
1777327286289,16209,2540,-1720,-849,-925,-631,25.17,21,25,3741,4,0,0
1777327286289,17483,2190,-1801,-670,-788,-764,25.17,21,25,3741,4,0,0
1777327286289,18184,1373,-2083,-591,-701,-811,25.17,21,25,3741,4,0,0
1777327286322,19745,1333,-2565,-584,-600,-712,25.17,21,25,3741,4,0,0
1777327286322,22273,2447,-3472,-615,-519,-498,25.17,21,25,3741,4,0,0
1777327286389,23060,3260,-3969,-693,-487,-322,25.17,21,25,3741,4,0,0
1777327286389,22542,2833,-4920,-750,-467,-280,25.17,21,25,3741,4,0,0
1777327286455,21756,1720,-5479,-714,-548,-284,25.17,21,25,3741,4,0,0
1777327286455,20402,233,-5044,-516,-695,-203,25.17,21,25,3741,4,0,0
1777327286455,18934,-764,-3494,-158,-784,-30,25.17,21,25,3741,4,0,0
1777327286455,17323,-962,-1151,323,-730,219,25.17,21,25,3741,4,0,0
1777327286455,15743,-543,556,745,-399,443,25.17,21,25,3741,4,0,0
1777327286522,15555,734,418,1031,90,614,25.17,21,25,3741,4,0,0
1777327286522,16217,2317,-1375,1196,525,686,25.17,21,25,3741,4,0,0
1777327286605,16913,3346,-3287,1292,749,639,25.17,23,27,3743,4,0,0
1777327286605,16869,3297,-4484,1361,813,562,25.17,23,27,3743,4,0,0
1777327286605,16390,2528,-5279,1366,788,541,25.17,23,27,3743,4,0,0
1777327286605,15616,1971,-5180,1299,733,609,25.17,23,27,3743,4,0,0
1777327286705,15286,1574,-5830,1232,694,744,25.17,23,27,3743,4,0,0
1777327286705,15423,1426,-5550,1077,584,910,25.17,23,27,3743,4,0,0
1777327286706,15876,2394,-5811,952,452,1114,25.17,23,27,3743,4,0,0
1777327286706,15860,3034,-5065,825,333,1243,25.17,23,27,3743,4,0,0
1777327286706,16123,3748,-4654,641,316,1294,25.17,23,27,3743,4,0,0
1777327286739,15879,4102,-4265,540,361,1342,25.17,23,27,3743,4,0,0
1777327286739,15598,4522,-4429,595,459,1343,25.17,23,27,3743,4,0,0
1777327286789,15071,4835,-4678,703,507,1298,25.17,23,27,3743,4,0,0
1777327286789,14822,5119,-4871,738,505,1215,25.17,23,27,3743,4,0,0
1777327286822,14361,5116,-4811,698,449,1111,25.17,23,27,3743,4,0,0
1777327286822,14030,5184,-4318,633,374,999,25.17,23,27,3743,4,0,0
1777327286822,14497,5527,-4014,556,318,868,25.17,23,27,3743,4,0,0
1777327286888,15005,5942,-3505,489,265,719,25.17,23,27,3743,4,0,0
1777327286888,15632,6297,-2972,455,284,586,25.17,23,27,3743,4,0,0
1777327286922,16512,6923,-2853,433,359,464,25.17,23,27,3743,4,0,0
1777327286922,16873,7324,-2909,421,393,314,25.17,23,27,3743,4,0,0
1777327286955,16056,6836,-2782,321,382,152,25.17,23,27,3743,4,0,0
1777327286955,15375,6416,-2554,142,336,57,25.17,23,27,3743,4,0,0
1777327287022,16326,7379,-1883,-56,313,47,25.17,23,27,3743,4,0,0
1777327287022,18571,9105,-2429,-313,358,35,25.17,23,27,3743,4,0,0
1777327287022,19304,10072,-2506,-635,336,-90,25.17,23,27,3743,4,0,0
1777327287055,19321,10223,-3285,-1062,366,-309,25.17,23,27,3743,4,0,0
1777327287055,17404,8429,-4908,-1484,303,-613,25.17,23,27,3743,4,0,0
1777327287089,14545,5567,-5763,-1732,57,-847,25.17,23,27,3743,4,0,0
1777327287089,12749,3837,-4971,-1752,-231,-923,25.17,23,27,3743,4,0,0
1777327287155,12344,3463,-4095,-1568,-358,-905,25.17,23,27,3743,4,0,0
1777327287155,12947,3864,-3449,-1229,-330,-899,25.17,23,27,3743,4,0,0
1777327287189,13786,4462,-3621,-868,-183,-950,25.17,23,27,3743,4,0,0
1777327287189,13537,4430,-4336,-569,-51,-987,25.17,23,27,3743,4,0,0
1777327287189,13064,4049,-4985,-478,-26,-968,25.17,23,27,3743,4,0,0
1777327287222,12521,3672,-5635,-719,-87,-907,25.17,23,27,3743,4,0,0
1777327287222,12214,3574,-6309,-1182,-229,-830,25.17,23,27,3743,4,0,0
1777327287289,12607,3908,-6378,-1665,-394,-811,25.17,23,27,3743,4,0,0
1777327287289,13325,3944,-7359,-2031,-572,-883,25.17,23,27,3743,4,0,0
1777327287323,13709,3877,-7446,-2296,-797,-1041,25.17,23,27,3743,4,0,0
1777327287323,14142,3426,-6963,-2328,-976,-1189,25.17,23,27,3743,4,0,0
1777327287356,15351,2658,-6509,-2206,-1086,-1260,25.17,23,27,3743,4,0,0
1777327287356,16457,1972,-6101,-2059,-1220,-1258,25.17,23,27,3743,4,0,0
1777327287356,16770,1111,-4629,-1941,-1382,-1076,25.17,23,27,3743,4,0,0
1777327287423,17578,1293,-4002,-1942,-1415,-943,25.17,23,27,3743,4,0,0
1777327287423,18037,1413,-2887,-1899,-1408,-869,25.17,23,27,3743,4,0,0
1777327287455,17828,1168,-1791,-1652,-1314,-857,25.17,23,27,3743,4,0,0
1777327287455,17125,650,-1054,-1351,-1119,-839,25.17,23,27,3743,4,0,0
1777327287489,17038,379,-1060,-1043,-869,-810,25.17,23,27,3743,4,0,0
1777327287489,17644,670,-1254,-657,-628,-779,25.15,23,29,3768,4,0,0
1777327287555,18600,739,-1232,-137,-456,-761,25.15,23,29,3768,4,0,0
1777327287555,18764,276,-871,256,-269,-697,25.15,23,29,3768,4,0,0
1777327287589,18987,-10,-1324,427,-24,-547,25.15,23,29,3768,4,0,0
1777327287589,19451,10,-2453,446,162,-329,25.15,23,29,3768,4,0,0
1777327287589,21459,1177,-3588,427,268,-31,25.15,23,29,3768,4,0,0
1777327287622,23947,3311,-4374,382,331,328,25.15,23,29,3768,4,0,0
1777327287622,24391,4459,-5207,294,372,573,25.15,23,29,3768,4,0,0
1777327287689,22849,3932,-5706,214,335,649,25.15,23,29,3768,4,0,0
1777327287689,20627,2602,-6065,241,286,723,25.15,23,29,3768,4,0,0
1777327287723,18448,1557,-5596,488,260,914,25.15,23,29,3768,4,0,0
1777327287723,17773,2041,-4810,936,309,1165,25.15,23,29,3768,4,0,0
1777327287723,17465,3352,-3767,1370,452,1340,25.15,23,29,3768,4,0,0
1777327287756,17282,4201,-3596,1630,703,1371,25.15,23,29,3768,4,0,0
1777327287756,17175,4364,-4120,1718,910,1361,25.15,23,29,3768,4,0,0
1777327287822,16542,4014,-5228,1627,1077,1386,25.15,23,29,3768,4,0,0
1777327287822,16462,3858,-6642,1462,1119,1492,25.15,23,29,3768,4,0,0
1777327287856,16299,4092,-7352,1281,1009,1642,25.15,23,29,3768,4,0,0
1777327287856,16167,4715,-6894,1119,862,1769,25.15,23,29,3768,4,0,0
1777327287889,16052,5244,-7272,949,715,1833,25.15,23,29,3768,4,0,0
1777327287889,15591,5482,-7043,808,581,1827,25.15,23,29,3768,4,0,0
1777327287889,15152,5549,-6641,715,495,1801,25.15,23,29,3768,4,0,0
1777327287989,14927,5676,-6293,683,469,1785,25.15,23,29,3768,4,0,0
1777327287989,14453,5818,-5979,733,468,1745,25.15,23,29,3768,4,0,0
1777327287989,13874,6010,-5573,800,479,1668,25.15,23,29,3768,4,0,0
1777327287989,13586,6186,-5385,854,505,1549,25.15,23,29,3768,4,0,0
1777327288056,13580,6368,-5396,878,502,1401,25.15,23,29,3768,4,0,0
1777327288056,13441,6421,-5259,871,447,1251,25.15,23,29,3768,4,0,0
1777327288089,13112,6524,-4817,786,380,1075,25.15,23,29,3768,4,0,0
1777327288089,13585,6880,-4344,672,360,906,25.15,23,29,3768,4,0,0
1777327288089,14842,7515,-4240,585,361,739,25.15,23,29,3768,4,0,0
1777327288122,15735,7854,-4052,523,351,569,25.15,23,29,3768,4,0,0
1777327288122,15304,7663,-3982,412,314,355,25.15,23,29,3768,4,0,0
1777327288188,15230,7335,-4003,231,266,145,25.15,23,29,3768,4,0,0
1777327288188,15547,7282,-4021,30,158,-50,25.15,23,29,3768,4,0,0
1777327288222,16736,7736,-3847,-167,52,-215,25.15,23,29,3768,4,0,0
1777327288222,16943,7797,-3476,-354,-57,-375,25.15,23,29,3768,4,0,0
1777327288273,16450,7610,-3110,-553,-120,-551,25.15,23,29,3768,4,0,0
1777327288273,16133,7213,-3322,-735,-131,-775,25.15,23,29,3768,4,0,0
1777327288273,15052,6196,-3559,-810,-212,-1034,25.15,23,29,3768,4,0,0
1777327288323,14515,5069,-3417,-791,-331,-1268,25.15,23,29,3768,4,0,0
1777327288323,14813,4348,-3029,-713,-444,-1471,25.15,23,29,3768,4,0,0
1777327288356,15459,3647,-2595,-563,-526,-1627,25.15,23,29,3768,4,0,0
1777327288356,16464,3024,-2103,-373,-574,-1728,25.15,23,29,3768,4,0,0
1777327288389,16739,2366,-1401,-186,-579,-1734,25.15,23,29,3768,4,0,0
1777327288389,16045,1918,-720,-48,-486,-1640,25.15,23,29,3768,4,0,0
1777327288456,15751,1734,-994,-26,-340,-1500,25.15,23,29,3768,4,0,0
1777327288456,15180,1733,-1560,-107,-255,-1334,25.15,23,29,3768,4,0,0
1777327288456,14821,1944,-2262,-279,-259,-1184,25.15,23,29,3768,4,0,0
1777327288489,14537,2279,-2470,-519,-340,-1082,25.15,23,29,3768,4,0,0
1777327288489,14692,2655,-2637,-837,-487,-1024,25.15,23,29,3768,4,0,0
1777327288522,14728,2636,-2496,-975,-569,-1029,25.16,24,30,3776,4,0,0
1777327288522,14919,2523,-2281,-1027,-615,-1055,25.16,24,30,3776,4,0,0
1777327288589,15040,2208,-1970,-991,-614,-1074,25.16,24,30,3776,4,0,0
1777327288589,15259,1885,-1846,-900,-573,-1060,25.16,24,30,3776,4,0,0
1777327288622,15419,1808,-1896,-813,-530,-1034,25.16,24,30,3776,4,0,0
1777327288622,15678,1539,-1987,-745,-505,-1006,25.16,24,30,3776,4,0,0
1777327288622,15918,1394,-1916,-702,-496,-955,25.16,24,30,3776,4,0,0
1777327288656,16452,1451,-1704,-647,-477,-878,25.16,24,30,3776,4,0,0
1777327288656,17200,1855,-1519,-574,-418,-788,25.16,24,30,3776,4,0,0
1777327288722,18262,2410,-1693,-512,-322,-713,25.16,24,30,3776,4,0,0
1777327288722,19187,2527,-2420,-491,-241,-667,25.16,24,30,3776,4,0,0
1777327288755,19484,2208,-2802,-503,-230,-591,25.16,24,30,3776,4,0,0
1777327288755,18952,1370,-3590,-561,-218,-467,25.16,24,30,3776,4,0,0
1777327288790,18842,962,-4379,-584,-245,-266,25.16,24,30,3776,4,0,0
1777327288822,20168,1917,-4951,-594,-274,5,25.16,24,30,3776,4,0,0
1777327288822,21473,3499,-5016,-565,-313,259,25.16,24,30,3776,4,0,0
1777327288889,21545,4834,-4757,-511,-279,372,25.16,24,30,3776,4,0,0
1777327288889,20997,4991,-4842,-406,-176,324,25.16,24,30,3776,4,0,0
1777327288889,19506,3815,-4940,-153,-67,215,25.16,24,30,3776,4,0,0
1777327288889,17724,2159,-4543,233,63,188,25.16,24,30,3776,4,0,0
1777327288955,16777,1126,-4498,670,237,284,25.16,24,30,3776,4,0,0
1777327288989,17010,1324,-4609,1066,380,475,25.16,24,30,3776,4,0,0
1777327288989,17215,1859,-4422,1295,482,663,25.16,24,30,3776,4,0,0
1777327288989,17187,2358,-4555,1342,581,811,25.16,24,30,3776,4,0,0
1777327288989,17085,2507,-5042,1307,666,959,25.16,24,30,3776,4,0,0
1777327289022,16817,2770,-5506,1247,713,1143,25.16,24,30,3776,4,0,0
1777327289022,16314,3037,-5811,1175,717,1321,25.16,24,30,3776,4,0,0
1777327289088,16025,3571,-6271,1096,670,1461,25.16,24,30,3776,4,0,0
1777327289089,15758,4147,-6362,1044,569,1553,25.16,24,30,3776,4,0,0
1777327289122,15343,4572,-6060,997,435,1582,25.16,24,30,3776,4,0,0
1777327289122,14673,4801,-5505,931,353,1578,25.16,24,30,3776,4,0,0
1777327289172,14340,5067,-5198,877,329,1550,25.16,24,30,3776,4,0,0
1777327289172,13984,5379,-4917,871,320,1497,25.16,24,30,3776,4,0,0
1777327289172,13858,5774,-4671,881,344,1402,25.16,24,30,3776,4,0,0
1777327289205,13603,5945,-4381,887,369,1267,25.16,24,30,3776,4,0,0
1777327289205,13152,5806,-4238,890,405,1111,25.16,24,30,3776,4,0,0
1777327289272,13054,5711,-4228,895,437,961,25.16,24,30,3776,4,0,0
1777327289272,13261,5720,-4214,877,423,820,25.16,24,30,3776,4,0,0
1777327289306,13443,5731,-3870,826,385,670,25.16,24,30,3776,4,0,0
1777327289306,14412,6080,-3525,736,385,550,25.16,24,30,3776,4,0,0
1777327289339,16014,6920,-3538,630,423,463,25.16,24,30,3776,4,0,0
1777327289339,17295,7713,-3863,517,436,358,25.16,24,30,3776,4,0,0
1777327289339,17629,7705,-4020,388,400,211,25.16,24,30,3776,4,0,0
1777327289390,17008,6901,-4242,190,298,33,25.16,24,30,3776,4,0,0
1777327289390,16976,6296,-3856,-4,186,-27,25.16,24,30,3776,4,0,0
1777327289422,18346,7493,-3442,-180,153,17,25.16,24,30,3776,4,0,0
1777327289422,18540,8799,-3238,-364,134,-14,25.16,24,30,3776,4,0,0
1777327289473,18109,9196,-3639,-558,102,-206,25.16,24,30,3776,4,0,0
1777327289473,16659,8380,-4019,-761,-17,-520,25.16,24,30,3776,4,0,0
1777327289539,15276,6778,-3855,-894,-171,-837,25.16,24,30,3776,4,0,0
1777327289539,14239,5164,-3283,-869,-306,-1046,25.16,24,30,3776,4,0,0
1777327289539,13758,4186,-2161,-687,-383,-1199,25.14,26,32,3776,4,0,0
1777327289556,13815,3497,-1181,-439,-339,-1317,25.14,26,32,3776,4,0,0
1777327289556,14606,2977,-928,-193,-244,-1405,25.14,26,32,3776,4,0,0
1777327289659,14998,2192,-817,39,-114,-1360,25.14,26,32,3776,4,0,0
1777327289659,14739,1952,-1122,-27,-52,-1201,25.14,26,32,3776,4,0,0
1777327289659,14389,1893,-1772,-262,-26,-1004,25.14,26,32,3776,4,0,0
1777327289659,13856,1967,-2484,-586,-61,-797,25.14,26,32,3776,4,0,0
1777327289721,13472,2329,-3231,-915,-154,-611,25.14,26,32,3776,4,0,0
1777327289721,12932,2766,-3529,-1192,-295,-493,25.14,26,32,3776,4,0,0
1777327289721,12956,3280,-3757,-1366,-432,-474,25.14,26,32,3776,4,0,0
1777327289855,13161,3722,-3720,-1453,-559,-552,25.14,26,32,3776,4,0,0
1777327289855,13114,3486,-3406,-1386,-623,-672,25.14,26,32,3776,4,0,0
1777327289855,13490,3286,-3069,-1241,-614,-769,25.14,26,32,3776,4,0,0
1777327289855,13937,3035,-2918,-1070,-564,-843,25.14,26,32,3776,4,0,0
1777327289855,14316,2747,-2754,-888,-507,-883,25.14,26,32,3776,4,0,0
1777327289855,14572,2354,-2632,-734,-457,-888,25.14,26,32,3776,4,0,0
1777327289888,14768,2043,-2571,-619,-424,-862,25.14,26,32,3776,4,0,0
1777327289888,15003,1950,-2332,-551,-394,-820,25.14,26,32,3776,4,0,0
1777327289888,15572,2117,-2380,-503,-355,-762,25.14,26,32,3776,4,0,0
1777327289937,16757,2746,-2552,-454,-329,-710,25.14,26,32,3776,4,0,0
1777327289937,17703,3010,-2594,-377,-319,-704,25.14,26,32,3776,4,0,0
1777327289971,18295,2780,-2644,-312,-292,-698,25.14,26,32,3776,4,0,0
1777327289971,18739,2443,-3049,-302,-254,-646,25.14,26,32,3776,4,0,0
1777327290038,18828,1838,-3736,-325,-251,-534,25.14,26,32,3776,4,0,0
1777327290038,19470,2084,-4136,-325,-267,-333,25.14,26,32,3776,4,0,0
1777327290088,21481,3866,-4436,-303,-243,-99,25.14,26,32,3776,4,0,0
1777327290088,23211,5549,-4771,-315,-202,24,25.14,26,32,3776,4,0,0
1777327290088,23388,5695,-5292,-322,-182,-23,25.14,26,32,3776,4,0,0
1777327290138,21565,3816,-5498,-248,-204,-117,25.14,26,32,3776,4,0,0
1777327290138,18898,1607,-4907,-5,-174,-70,25.14,26,32,3776,4,0,0
1777327290155,17088,457,-4158,409,-21,103,25.14,26,32,3776,4,0,0
1777327290155,16305,738,-3637,957,161,343,25.14,26,32,3776,4,0,0
1777327290187,15996,1672,-3184,1443,396,527,25.14,26,32,3776,4,0,0
1777327290187,16724,2463,-3763,1697,596,599,25.14,26,32,3776,4,0,0
1777327290254,16770,2507,-4403,1729,666,668,25.14,26,32,3776,4,0,0
1777327290254,16350,2134,-4924,1638,660,809,25.14,26,32,3776,4,0,0
1777327290254,15768,2011,-5154,1467,624,1014,25.14,26,32,3776,4,0,0
1777327290288,15524,2312,-5041,1288,579,1232,25.14,26,32,3776,4,0,0
1777327290288,15293,3047,-5291,1187,560,1423,25.14,26,32,3776,4,0,0
1777327290321,15180,3948,-5492,1099,505,1529,25.14,26,32,3776,4,0,0
1777327290321,14798,4421,-5553,1025,429,1555,25.14,26,32,3776,4,0,0
1777327290388,14519,4744,-5170,955,367,1539,25.14,26,32,3776,4,0,0
1777327290388,14203,5004,-4936,909,362,1511,25.14,26,32,3776,4,0,0
1777327290421,14257,5464,-4985,889,378,1475,25.14,26,32,3776,4,0,0
1777327290421,14225,5985,-4754,881,386,1411,25.14,26,32,3776,4,0,0
1777327290421,14157,6370,-4581,868,403,1292,25.14,26,32,3776,4,0,0
1777327290454,14140,6590,-4616,823,432,1137,25.14,26,32,3776,4,0,0
1777327290454,14242,6696,-4925,752,425,976,25.14,26,32,3776,4,0,0
1777327290521,14101,6516,-4847,675,362,819,25.14,26,32,3776,4,0,0
1777327290521,14641,6705,-4502,605,327,690,25.14,26,32,3776,4,0,0
1777327290571,15798,7470,-4224,554,327,590,25.13,27,33,3778,4,0,0
1777327290571,16889,8366,-4033,506,340,455,25.13,27,33,3778,4,0,0
1777327290604,17072,8322,-4037,430,342,252,25.13,27,33,3778,4,0,0
1777327290604,16822,7506,-4118,306,299,50,25.13,27,33,3778,4,0,0
1777327290604,16718,6874,-3902,175,213,-54,25.13,27,33,3778,4,0,0
1777327290638,17697,7646,-3365,38,168,-58,25.13,27,33,3778,4,0,0
1777327290638,18456,9079,-3152,-145,151,-96,25.13,27,33,3778,4,0,0
1777327290704,18682,9676,-3317,-360,121,-267,25.13,27,33,3778,4,0,0
1777327290704,17417,9156,-3628,-630,26,-550,25.13,27,33,3778,4,0,0
1777327290771,15489,7055,-3886,-875,-134,-890,25.13,27,33,3778,4,0,0
1777327290771,14081,3780,-3012,-890,-428,-1208,25.13,27,33,3778,4,0,0
1777327290771,13974,2641,-1516,-745,-513,-1216,25.13,27,33,3778,4,0,0
1777327290804,14101,2264,-324,-498,-426,-1154,25.13,27,33,3778,4,0,0
1777327290804,14475,2239,104,-267,-214,-1042,25.13,27,33,3778,4,0,0
1777327290837,14722,2512,-471,-184,8,-901,25.13,27,33,3778,4,0,0
1777327290837,14310,2742,-1564,-293,130,-743,25.13,27,33,3778,4,0,0
1777327290871,13685,2915,-2701,-536,119,-598,25.13,27,33,3778,4,0,0
1777327290871,12993,3156,-3684,-860,14,-455,25.13,27,33,3778,4,0,0
1777327290937,12385,3628,-4132,-1209,-145,-364,25.13,27,33,3778,4,0,0
1777327290937,12408,4075,-4105,-1485,-300,-375,25.13,27,33,3778,4,0,0
1777327290970,12031,4337,-4164,-1617,-442,-484,25.13,27,33,3778,4,0,0
1777327290970,11826,4173,-3875,-1607,-530,-666,25.13,27,33,3778,4,0,0
1777327290971,12023,3885,-3690,-1454,-545,-861,25.13,27,33,3778,4,0,0
1777327291004,12495,3441,-3449,-1270,-515,-1010,25.13,27,33,3778,4,0,0
1777327291004,13432,3036,-3289,-1110,-485,-1117,25.13,27,33,3778,4,0,0
1777327291071,14414,2532,-2923,-935,-460,-1165,25.13,27,33,3778,4,0,0
1777327291071,15037,1899,-2368,-805,-418,-1161,25.13,27,33,3778,4,0,0
1777327291104,15390,1534,-1953,-737,-328,-1107,25.13,27,33,3778,4,0,0
1777327291104,16071,1411,-2360,-681,-204,-1026,25.13,27,33,3778,4,0,0
1777327291137,16979,1557,-2990,-633,-136,-943,25.13,27,33,3778,4,0,0
1777327291137,18220,2002,-3501,-579,-115,-846,25.13,27,33,3778,4,0,0
1777327291137,19723,2524,-4334,-550,-126,-771,25.13,27,33,3778,4,0,0
1777327291203,20047,2150,-4907,-543,-196,-719,25.13,27,33,3778,4,0,0
1777327291203,19637,1195,-5004,-497,-255,-612,25.13,27,33,3778,4,0,0
1777327291238,20268,1193,-5294,-420,-272,-380,25.13,27,33,3778,4,0,0
1777327291238,22446,3025,-6042,-335,-236,-78,25.13,27,33,3778,4,0,0
1777327291271,23951,4738,-6236,-249,-230,107,25.13,27,33,3778,4,0,0
1777327291271,22967,4665,-6078,-110,-242,111,25.13,27,33,3778,4,0,0
1777327291338,20107,2801,-5317,115,-226,32,25.13,27,33,3778,4,0,0
1777327291338,17907,948,-4616,414,-121,64,25.13,27,33,3778,4,0,0
1777327291338,17451,475,-4376,796,25,277,25.13,27,33,3778,4,0,0
1777327291388,17649,1316,-4146,1194,152,566,25.13,27,33,3778,4,0,0
1777327291388,17818,2414,-3581,1461,272,734,25.13,27,33,3778,4,0,0
1777327291405,17731,2437,-3512,1553,394,795,25.13,27,33,3778,4,0,0
1777327291405,17361,1917,-3898,1528,476,933,25.13,27,33,3778,4,0,0
1777327291521,16736,1833,-4076,1445,507,1159,25.13,27,33,3778,4,0,0
1777327291521,16283,2252,-4199,1364,519,1394,25.13,27,33,3778,4,0,0
1777327291521,15788,3235,-3992,1315,520,1562,25.13,27,33,3778,4,0,0
1777327291521,15595,3785,-4328,1241,495,1655,25.13,27,33,3778,4,0,0
1777327291521,15314,4448,-4399,1192,439,1686,25.12,28,35,3776,4,0,0
1777327291605,14663,4802,-3992,1122,403,1667,25.12,28,35,3776,4,0,0
1777327291605,14316,5240,-3767,1047,432,1617,25.12,28,35,3776,4,0,0
1777327291605,14036,5556,-3833,1012,482,1525,25.12,28,35,3776,4,0,0
1777327291605,13693,5512,-3827,993,524,1402,25.12,28,35,3776,4,0,0
1777327291671,13134,5431,-3778,975,573,1283,25.12,28,35,3776,4,0,0
1777327291671,12979,5547,-4000,930,616,1159,25.12,28,35,3776,4,0,0
1777327291671,12949,5565,-4247,836,605,1012,25.12,28,35,3776,4,0,0
1777327291671,12886,5519,-4258,697,540,867,25.12,28,35,3776,4,0,0
1777327291671,13724,6052,-4112,514,500,771,25.12,28,35,3776,4,0,0
1777327291722,15488,7228,-4230,313,494,674,25.12,28,35,3776,4,0,0
1777327291722,17420,8430,-4443,165,458,499,25.12,28,35,3776,4,0,0
1777327291788,17790,8381,-4394,34,339,186,25.12,28,35,3776,4,0,0
1777327291788,17308,6966,-4389,-152,231,-136,25.12,28,35,3776,4,0,0
1777327291821,17743,5908,-4371,-308,151,-250,25.12,28,35,3776,4,0,0
1777327291821,19454,6687,-4306,-422,91,-182,25.12,28,35,3776,4,0,0
1777327291855,19272,7896,-3705,-600,-35,-203,25.12,28,35,3776,4,0,0
1777327291855,17654,7614,-3542,-739,-72,-374,25.12,28,35,3776,4,0,0
1777327291855,16270,6863,-3686,-771,-122,-592,25.12,28,35,3776,4,0,0
1777327291954,14711,5727,-3159,-666,-236,-788,25.12,28,35,3776,4,0,0
1777327291954,13606,5007,-1923,-505,-303,-949,25.12,28,35,3776,4,0,0
1777327291954,13587,4674,-1137,-332,-273,-1098,25.12,28,35,3776,4,0,0
1777327291954,14709,4466,-1082,-135,-220,-1237,25.12,28,35,3776,4,0,0
1777327292021,15310,4155,-1065,24,-217,-1318,25.12,28,35,3776,4,0,0
1777327292021,15084,3583,-850,36,-211,-1298,25.12,28,35,3776,4,0,0
1777327292054,14422,3113,-1028,-101,-186,-1191,25.12,28,35,3776,4,0,0
1777327292055,13676,2584,-1326,-338,-190,-1029,25.12,28,35,3776,4,0,0
1777327292055,12558,2287,-1751,-610,-209,-814,25.12,28,35,3776,4,0,0
1777327292088,12182,2789,-2006,-886,-260,-616,25.12,28,35,3776,4,0,0
1777327292088,11946,3417,-2536,-1151,-345,-543,25.12,28,35,3776,4,0,0
1777327292121,11910,3663,-2788,-1368,-444,-593,25.12,28,35,3776,4,0,0
1777327292121,12203,3555,-3097,-1476,-543,-687,25.12,28,35,3776,4,0,0
1777327292188,12590,3327,-2974,-1489,-576,-758,25.12,28,35,3776,4,0,0
1777327292188,13436,3216,-3024,-1387,-545,-792,25.12,28,35,3776,4,0,0
1777327292221,13885,3124,-3079,-1272,-494,-793,25.12,28,35,3776,4,0,0
1777327292221,14543,3201,-3101,-1148,-444,-808,25.12,28,35,3776,4,0,0
1777327292221,15044,3182,-3115,-1035,-413,-848,25.12,28,35,3776,4,0,0
1777327292255,15374,3013,-3013,-919,-386,-891,25.12,28,35,3776,4,0,0
1777327292255,15563,2693,-2892,-797,-366,-917,25.12,28,35,3776,4,0,0
1777327292321,16262,2702,-2616,-666,-325,-933,25.12,28,35,3776,4,0,0
1777327292321,17618,3032,-2582,-518,-263,-943,25.12,28,35,3776,4,0,0
1777327292355,18970,3208,-2810,-357,-215,-957,25.12,28,35,3776,4,0,0
1777327292355,19854,2862,-3114,-253,-192,-957,25.12,28,35,3776,4,0,0
1777327292421,20106,2023,-3527,-272,-181,-889,25.12,28,35,3776,4,0,0
1777327292421,21513,2045,-4212,-338,-145,-680,25.12,28,35,3776,4,0,0
1777327292421,23804,3563,-5064,-375,-118,-351,25.12,28,35,3776,4,0,0
1777327292454,24825,4691,-5412,-386,-145,-132,25.12,28,35,3776,4,0,0
1777327292454,23256,4093,-5617,-352,-217,-107,25.12,28,35,3776,4,0,0
1777327292521,20429,1918,-5154,-189,-263,-99,25.12,28,35,3776,4,0,0
1777327292521,18483,430,-4540,110,-206,70,25.12,28,35,3776,4,0,0
1777327292538,17732,258,-3747,578,-117,351,25.12,30,37,3782,4,0,0
1777327292538,17865,1283,-2531,1071,15,623,25.12,30,37,3782,4,0,0
1777327292571,17243,2091,-1530,1385,243,772,25.12,30,37,3782,4,0,0
1777327292571,16724,2141,-1691,1482,520,851,25.12,30,37,3782,4,0,0
1777327292571,16376,2030,-2922,1449,742,986,25.12,30,37,3782,4,0,0
1777327292638,16122,2427,-4252,1344,802,1170,25.12,30,37,3782,4,0,0
1777327292638,15436,2969,-4927,1183,733,1343,25.12,30,37,3782,4,0,0
1777327292671,15213,3693,-5160,1000,627,1428,25.12,30,37,3782,4,0,0
1777327292671,15187,3919,-5050,899,532,1449,25.12,30,37,3782,4,0,0
1777327292705,14775,3876,-4864,806,428,1448,25.12,30,37,3782,4,0,0
1777327292705,14191,3720,-4709,738,367,1467,25.12,30,37,3782,4,0,0
1777327292771,14136,4054,-4585,716,356,1500,25.12,30,37,3782,4,0,0
1777327292771,14063,4550,-4430,766,367,1503,25.12,30,37,3782,4,0,0
1777327292771,14129,5013,-4299,857,397,1464,25.12,30,37,3782,4,0,0
1777327292804,13962,5244,-4079,913,446,1385,25.12,30,37,3782,4,0,0
1777327292804,14156,5393,-4212,908,496,1303,25.12,30,37,3782,4,0,0
1777327292871,14357,5648,-4381,857,509,1226,25.12,30,37,3782,4,0,0
1777327292871,14409,5850,-4474,763,476,1147,25.12,30,37,3782,4,0,0
1777327292904,15067,6275,-4372,639,434,1070,25.12,30,37,3782,4,0,0
1777327292905,15939,7080,-4155,499,407,991,25.12,30,37,3782,4,0,0
1777327292937,16703,7838,-4134,346,395,870,25.12,30,37,3782,4,0,0
1777327292937,17027,8116,-4444,202,374,687,25.12,30,37,3782,4,0,0
1777327292937,16723,7430,-4729,18,245,410,25.12,30,37,3782,4,0,0
1777327293038,16222,6986,-4293,-75,127,282,25.12,30,37,3782,4,0,0
1777327293038,16330,7380,-3356,-110,52,179,25.12,30,37,3782,4,0,0
1777327293038,17682,8618,-2969,-169,65,44,25.12,30,37,3782,4,0,0
1777327293038,18577,9066,-2631,-265,12,-186,25.12,30,37,3782,4,0,0
1777327293071,17988,8589,-1870,-480,-35,-471,25.12,30,37,3782,4,0,0
1777327293071,15552,6650,-2179,-793,5,-743,25.12,30,37,3782,4,0,0
1777327293136,14040,4910,-2808,-996,-57,-905,25.12,30,37,3782,4,0,0
1777327293136,13478,3844,-3055,-1028,-213,-998,25.12,30,37,3782,4,0,0
1777327293136,13574,3545,-2342,-919,-378,-1056,25.12,30,37,3782,4,0,0
1777327293170,13987,3452,-1296,-724,-414,-1129,25.12,30,37,3782,4,0,0
1777327293170,14790,3467,-1167,-508,-328,-1192,25.12,30,37,3782,4,0,0
1777327293203,15560,3625,-1365,-313,-226,-1211,25.12,30,37,3782,4,0,0
1777327293203,15517,3398,-1602,-213,-149,-1191,25.12,30,37,3782,4,0,0
1777327293269,14788,2635,-1910,-241,-82,-1111,25.12,30,37,3782,4,0,0
1777327293269,13941,2275,-2269,-327,-55,-935,25.12,30,37,3782,4,0,0
1777327293303,13310,2628,-2723,-469,-60,-740,25.12,30,37,3782,4,0,0
1777327293303,13058,3315,-3212,-650,-116,-632,25.12,30,37,3782,4,0,0
1777327293303,13189,3878,-3711,-813,-235,-636,25.12,30,37,3782,4,0,0
1777327293336,13447,4163,-3177,-928,-372,-717,25.12,30,37,3782,4,0,0
1777327293336,13371,4043,-3102,-973,-468,-830,25.12,30,37,3782,4,0,0
1777327293403,13516,3885,-2664,-958,-493,-926,25.12,30,37,3782,4,0,0
1777327293403,14082,3719,-2425,-877,-448,-1000,25.12,30,37,3782,4,0,0
1777327293436,14623,3476,-2374,-758,-404,-1057,25.12,30,37,3782,4,0,0
1777327293470,14738,2954,-2284,-653,-387,-1093,25.12,30,37,3782,4,0,0
1777327293470,14733,2478,-2168,-606,-366,-1094,25.12,30,37,3782,4,0,0
1777327293470,14990,2207,-2130,-566,-356,-1073,25.12,30,37,3782,4,0,0
1777327293503,15537,2239,-1877,-506,-347,-1032,25.12,30,37,3782,4,0,0
1777327293586,16577,2450,-1618,-420,-316,-995,25.1,30,38,3780,4,0,0
1777327293619,17847,2658,-1600,-330,-264,-941,25.1,30,38,3780,4,0,0
1777327293619,18813,2822,-1722,-290,-193,-856,25.1,30,38,3780,4,0,0
1777327293619,19522,2905,-2349,-381,-118,-764,25.1,30,38,3780,4,0,0
1777327293619,19953,2641,-3479,-559,-83,-641,25.1,30,38,3780,4,0,0
1777327293619,21597,3355,-4739,-721,-84,-417,25.1,30,38,3780,4,0,0
1777327293652,23345,4782,-5422,-802,-141,-150,25.1,30,38,3780,4,0,0
1777327293652,23967,5852,-5736,-836,-206,-44,25.1,30,38,3780,4,0,0
1777327293652,22695,5011,-5773,-828,-275,-142,25.1,30,38,3780,4,0,0
1777327293719,20072,2439,-5425,-669,-300,-230,25.1,30,38,3780,4,0,0
1777327293719,18109,484,-4742,-298,-246,-121,25.1,30,38,3780,4,0,0
1777327293754,17548,105,-4160,232,-111,139,25.1,30,38,3780,4,0,0
1777327293754,17680,807,-3339,838,49,422,25.1,30,38,3780,4,0,0
1777327293852,16892,1452,-2632,1240,280,593,25.1,30,38,3780,4,0,0
1777327293852,16207,1313,-3160,1370,521,703,25.1,30,38,3780,4,0,0
1777327293852,15729,1145,-4368,1364,643,887,25.1,30,38,3780,4,0,0
1777327293852,15757,1695,-5036,1346,641,1126,25.1,30,38,3780,4,0,0
1777327293852,16062,2634,-5438,1268,572,1320,25.1,30,38,3780,4,0,0
1777327293886,15930,3270,-4861,1134,446,1430,25.1,30,38,3780,4,0,0
1777327293886,15185,3272,-4667,994,384,1511,25.1,30,38,3780,4,0,0
1777327293919,14974,3492,-4992,885,367,1604,25.1,30,38,3780,4,0,0
1777327293919,14917,4078,-5126,853,336,1683,25.1,30,38,3780,4,0,0
1777327293985,15045,4780,-4971,891,301,1717,25.1,30,38,3780,4,0,0
1777327293986,14458,5109,-4393,941,300,1679,25.1,30,38,3780,4,0,0
1777327294086,13921,5296,-4226,968,362,1611,25.1,30,38,3780,4,0,0
1777327294086,13753,5511,-4468,994,433,1533,25.1,30,38,3780,4,0,0
1777327294086,13992,5938,-4760,1011,463,1438,25.1,30,38,3780,4,0,0
1777327294086,14291,6565,-4526,992,426,1242,25.1,30,38,3780,4,0,0
1777327294086,15095,7136,-4301,916,421,1095,25.1,30,38,3780,4,0,0
1777327294152,16365,7845,-4167,803,429,937,25.1,30,38,3780,4,0,0
1777327294152,17439,8372,-4137,657,431,780,25.1,30,38,3780,4,0,0
1777327294152,17690,8253,-4058,523,428,589,25.1,30,38,3780,4,0,0
1777327294152,17458,7621,-4380,401,420,411,25.1,30,38,3780,4,0,0
1777327294252,17186,7064,-4652,316,338,304,25.1,30,38,3780,4,0,0
1777327294252,17685,7561,-4280,244,229,253,25.1,30,38,3780,4,0,0
1777327294252,18047,8534,-3627,121,149,198,25.1,30,38,3780,4,0,0
1777327294252,17431,8844,-3239,-48,96,33,25.1,30,38,3780,4,0,0
1777327294252,16782,8550,-3278,-222,29,-206,25.1,30,38,3780,4,0,0
1777327294302,15137,7512,-2844,-328,-81,-456,25.1,30,38,3780,4,0,0
1777327294302,14158,6491,-2355,-349,-176,-675,25.1,30,38,3780,4,0,0
1777327294335,13562,5502,-1464,-270,-241,-857,25.1,30,38,3780,4,0,0
1777327294335,13584,4775,-1064,-158,-238,-1004,25.1,30,38,3780,4,0,0
1777327294370,14426,4161,-849,-47,-238,-1113,25.1,30,38,3780,4,0,0
1777327294370,14934,3324,-529,27,-231,-1129,25.1,30,38,3780,4,0,0
1777327294370,14875,2756,-200,14,-171,-1001,25.1,30,38,3780,4,0,0
1777327294436,14333,2772,-362,-96,-61,-787,25.1,30,38,3780,4,0,0
1777327294436,13782,3296,-1268,-293,17,-605,25.1,30,38,3780,4,0,0
1777327294469,13160,3794,-2506,-558,-18,-514,25.1,30,38,3780,4,0,0
1777327294469,12743,4102,-3333,-856,-158,-506,25.1,30,38,3780,4,0,0
1777327294536,12494,4075,-3229,-1132,-335,-564,25.1,30,38,3780,4,0,0
1777327294536,12276,3932,-3633,-1301,-477,-629,25.1,30,38,3780,4,0,0
1777327294554,12292,3859,-3420,-1403,-600,-726,25.11,31,40,3778,4,0,0
1777327294554,12144,3656,-2989,-1383,-640,-846,25.11,31,40,3778,4,0,0
1777327294554,12462,3567,-2507,-1251,-610,-962,25.11,31,40,3778,4,0,0
1777327294619,13121,3594,-2397,-1052,-536,-1082,25.11,31,40,3778,4,0,0
1777327294619,13806,3447,-2190,-868,-464,-1203,25.11,31,40,3778,4,0,0
1777327294666,14632,3116,-2204,-710,-401,-1306,25.11,31,40,3778,4,0,0
1777327294666,15487,2663,-2179,-610,-361,-1365,25.11,31,40,3778,4,0,0
1777327294703,16134,2281,-2220,-539,-328,-1354,25.11,31,40,3778,4,0,0
1777327294703,17333,2294,-2283,-531,-295,-1292,25.11,31,40,3778,4,0,0
1777327294736,18983,2628,-2421,-538,-284,-1211,25.11,31,40,3778,4,0,0
1777327294736,20526,2593,-2522,-554,-284,-1134,25.11,31,40,3778,4,0,0
1777327294736,21257,1932,-2475,-619,-289,-1025,25.11,31,40,3778,4,0,0
1777327294803,20767,994,-2649,-756,-260,-813,25.11,31,40,3778,4,0,0
1777327294803,20343,555,-3647,-927,-237,-532,25.11,31,40,3778,4,0,0
1777327294836,21427,1850,-4537,-1021,-249,-213,25.11,31,40,3778,4,0,0
1777327294836,23108,4031,-5063,-987,-320,20,25.11,31,40,3778,4,0,0
1777327295069,23781,5399,-4875,-901,-362,4,25.11,31,40,3778,4,0,0
1777327295069,22634,4624,-4615,-735,-338,-211,25.11,31,40,3778,4,0,0
1777327295069,20024,1760,-4472,-424,-289,-413,25.11,31,40,3778,4,0,0
1777327295069,18180,-698,-3698,14,-183,-378,25.11,31,40,3778,4,0,0
1777327295069,17634,-1550,-3106,575,11,-109,25.11,31,40,3778,4,0,0
1777327295069,17469,-933,-2282,1195,218,285,25.11,31,40,3778,4,0,0
1777327295069,17210,345,-1764,1582,494,575,25.11,31,40,3778,4,0,0
1777327295069,16826,1045,-2540,1674,781,718,25.11,31,40,3778,4,0,0
1777327295069,16834,919,-4059,1616,921,872,25.11,31,40,3778,4,0,0
1777327295069,16240,942,-4971,1502,919,1137,25.11,31,40,3778,4,0,0
1777327295069,15970,1520,-5485,1359,847,1396,25.11,31,40,3778,4,0,0
1777327295069,15925,2277,-5333,1240,734,1575,25.11,31,40,3778,4,0,0
1777327295152,16200,2842,-5781,1202,690,1663,25.11,31,40,3778,4,0,0
1777327295152,16058,3247,-5473,1075,571,1712,25.11,31,40,3778,4,0,0
1777327295152,15487,3256,-5082,941,455,1736,25.11,31,40,3778,4,0,0
1777327295152,15223,3393,-4889,813,412,1806,25.11,31,40,3778,4,0,0
1777327295202,15573,4353,-5025,749,400,1906,25.11,31,40,3778,4,0,0
1777327295202,15976,5169,-4999,822,360,1895,25.11,31,40,3778,4,0,0
1777327295252,15520,5791,-4185,913,327,1814,25.11,31,40,3778,4,0,0
1777327295285,15191,6172,-3973,926,392,1663,25.11,31,40,3778,4,0,0
1777327295285,15159,6256,-4224,885,425,1441,25.11,31,40,3778,4,0,0
1777327295286,15408,6384,-4364,815,393,1240,25.11,31,40,3778,4,0,0
1777327295286,16314,6919,-4350,706,337,1087,25.11,31,40,3778,4,0,0
1777327295335,17078,7465,-3906,566,281,920,25.11,31,40,3778,4,0,0
1777327295369,17581,7505,-3576,429,248,727,25.11,31,40,3778,4,0,0
1777327295369,17624,7218,-3571,287,218,527,25.11,31,40,3778,4,0,0
1777327295369,17773,6999,-3503,135,169,384,25.11,31,40,3778,4,0,0
1777327295435,19168,8117,-3407,-22,161,312,25.11,31,40,3778,4,0,0
1777327295468,19181,8978,-3318,-151,143,201,25.11,31,40,3778,4,0,0
1777327295469,19070,9763,-3453,-287,128,-9,25.11,31,40,3778,4,0,0
1777327295469,16124,8268,-4018,-441,-32,-381,25.11,31,40,3778,4,0,0
1777327295469,13134,5751,-3355,-469,-275,-775,25.11,31,40,3778,4,0,0
1777327295502,12165,4306,-2033,-304,-435,-1012,25.11,31,40,3778,4,0,0
1777327295502,12400,3684,-332,26,-474,-1161,25.1,32,42,3783,4,0,0
1777327295569,13888,3754,537,425,-343,-1262,25.1,32,42,3783,4,0,0
1777327295569,14817,4235,863,731,-176,-1326,25.1,32,42,3783,4,0,0
1777327295602,15706,4838,0,763,-33,-1358,25.1,32,42,3783,4,0,0
1777327295602,16379,4428,-1099,504,-25,-1365,25.1,32,42,3783,4,0,0
1777327295635,15335,3012,-1284,63,-98,-1202,25.1,32,42,3783,4,0,0
1777327295635,13379,1856,-1295,-460,-114,-853,25.1,32,42,3783,4,0,0
1777327295635,12503,2317,-2246,-968,-127,-472,25.1,32,42,3783,4,0,0
1777327295702,12493,3403,-2725,-1325,-204,-276,25.1,32,42,3783,4,0,0
1777327295702,12259,3810,-3274,-1550,-336,-277,25.1,32,42,3783,4,0,0
1777327295785,12041,3812,-3229,-1640,-469,-392,25.1,32,42,3783,4,0,0
1777327295785,12113,3842,-2604,-1564,-508,-567,25.1,32,42,3783,4,0,0
1777327295835,12443,3621,-2272,-1333,-452,-761,25.1,32,42,3783,4,0,0
1777327295868,12840,3397,-2453,-1059,-349,-927,25.1,32,42,3783,4,0,0
1777327295868,13299,2916,-2622,-833,-259,-1053,25.1,32,42,3783,4,0,0
1777327295868,14167,2821,-3315,-729,-245,-1111,25.1,32,42,3783,4,0,0
1777327295869,14536,2446,-3263,-726,-317,-1124,25.1,32,42,3783,4,0,0
1777327295869,14948,2436,-3126,-779,-374,-1125,25.1,32,42,3783,4,0,0
1777327295869,15652,2776,-2768,-803,-412,-1135,25.1,32,42,3783,4,0,0
1777327295968,17383,3488,-3030,-814,-412,-1174,25.1,32,42,3783,4,0,0
1777327295968,19429,3823,-3175,-755,-442,-1243,25.1,32,42,3783,4,0,0
1777327295968,20554,3533,-2925,-699,-478,-1316,25.1,32,42,3783,4,0,0
1777327295968,20998,2550,-2760,-675,-438,-1334,25.1,32,42,3783,4,0,0
1777327296001,22104,2068,-3066,-678,-327,-1224,25.1,32,42,3783,4,0,0
1777327296001,24488,2953,-4057,-653,-188,-963,25.1,32,42,3783,4,0,0
1777327296001,25540,3854,-4701,-609,-144,-732,25.1,32,42,3783,4,0,0
1777327296052,24423,3294,-5098,-563,-171,-687,25.1,32,42,3783,4,0,0
1777327296052,21853,1078,-5049,-455,-227,-684,25.1,32,42,3783,4,0,0
1777327296085,19801,-739,-4439,-216,-229,-541,25.1,32,42,3783,4,0,0
1777327296085,18199,-1873,-3436,186,-230,-277,25.1,32,42,3783,4,0,0
1777327296152,18134,-1324,-1625,707,-123,95,25.1,32,42,3783,4,0,0
1777327296152,17811,-218,-401,1145,187,421,25.1,32,42,3783,4,0,0
1777327296185,17658,450,-676,1389,599,614,25.1,32,42,3783,4,0,0
1777327296185,17734,803,-2313,1399,923,772,25.1,32,42,3783,4,0,0
1777327296185,17880,892,-4352,1256,1031,974,25.1,32,42,3783,4,0,0
1777327296285,17161,1053,-5580,1046,937,1243,25.1,32,42,3783,4,0,0
1777327296285,16492,1635,-6333,786,766,1506,25.1,32,42,3783,4,0,0
1777327296285,15286,2519,-5752,555,543,1694,25.1,32,42,3783,4,0,0
1777327296335,15689,2898,-6022,458,355,1802,25.1,32,42,3783,4,0,0
1777327296335,14708,3284,-4742,410,170,1886,25.1,32,42,3783,4,0,0
1777327296335,14182,3643,-4288,480,186,1909,25.1,32,42,3783,4,0,0
1777327296368,14121,4260,-4128,606,261,1896,25.1,32,42,3783,4,0,0
1777327296368,14084,4888,-4019,778,360,1832,25.1,32,42,3783,4,0,0
1777327296418,14221,5422,-4251,933,468,1728,25.1,32,42,3783,4,0,0
1777327296418,14370,5838,-4552,1004,536,1596,25.1,32,42,3783,4,0,0
1777327296418,14679,6053,-4758,980,541,1435,25.1,32,42,3783,4,0,0
1777327296485,14953,6152,-4701,909,492,1282,25.1,32,42,3783,4,0,0
1777327296485,15816,6482,-4703,819,460,1146,25.1,32,42,3783,4,0,0
1777327296485,16966,6941,-4174,674,401,1034,25.1,32,42,3783,4,0,0
1777327296485,17428,7326,-3999,497,385,928,25.1,32,42,3783,4,0,0
1777327296536,18128,7712,-4103,265,380,791,25.09,33,43,3783,4,0,0
1777327296536,18107,7423,-4288,43,307,632,25.09,33,43,3783,4,0,0
1777327296536,17522,7156,-4153,-136,219,523,25.09,33,43,3783,4,0,0
1777327296601,18451,8360,-3756,-252,168,485,25.09,33,43,3783,4,0,0
1777327296601,18663,9342,-3779,-334,99,398,25.09,33,43,3783,4,0,0
1777327296635,18569,10106,-3128,-404,15,224,25.09,33,43,3783,4,0,0
1777327296635,15681,9156,-2603,-563,-60,-111,25.09,33,43,3783,4,0,0
1777327296668,13228,7398,-2321,-663,-110,-493,25.09,33,43,3783,4,0,0
1777327296668,12866,6387,-2005,-565,-167,-830,25.09,33,43,3783,4,0,0
1777327296735,13416,5845,-1444,-284,-206,-1101,25.09,33,43,3783,4,0,0
1777327296735,14744,5279,-1253,72,-226,-1361,25.09,33,43,3783,4,0,0
1777327296735,15695,4457,-952,385,-245,-1515,25.09,33,43,3783,4,0,0
1777327296768,15196,3755,-778,536,-219,-1468,25.09,33,43,3783,4,0,0
1777327296768,14475,3620,-1320,445,-179,-1292,25.09,33,43,3783,4,0,0
1777327296802,13778,3649,-1462,101,-196,-1096,25.09,33,43,3783,4,0,0
1777327296802,12929,3498,-1545,-397,-209,-958,25.09,33,43,3783,4,0,0
1777327296868,12521,3603,-2406,-880,-205,-841,25.09,33,43,3783,4,0,0
1777327296868,12741,4034,-3143,-1193,-254,-780,25.09,33,43,3783,4,0,0
1777327296901,12897,4363,-3730,-1379,-384,-814,25.09,33,43,3783,4,0,0
1777327296901,13072,4252,-3926,-1452,-501,-941,25.09,33,43,3783,4,0,0
1777327296901,12931,3882,-3719,-1392,-548,-1082,25.09,33,43,3783,4,0,0
1777327296968,13594,3478,-3797,-1262,-543,-1212,25.09,33,43,3783,4,0,0
1777327296968,14076,2909,-3837,-1125,-566,-1322,25.09,33,43,3783,4,0,0
1777327297001,14739,2402,-3821,-1007,-590,-1374,25.09,33,43,3783,4,0,0
1777327297001,15450,1921,-3773,-928,-637,-1385,25.09,33,43,3783,4,0,0
1777327297034,15684,1305,-3691,-901,-718,-1352,25.09,33,43,3783,4,0,0
1777327297034,15647,812,-3465,-921,-788,-1276,25.09,33,43,3783,4,0,0
1777327297101,16285,930,-2867,-931,-822,-1171,25.09,33,43,3783,4,0,0
1777327297101,17539,1840,-2004,-772,-740,-1092,25.09,33,43,3783,4,0,0
1777327297101,19117,2891,-1086,-506,-533,-1094,25.09,33,43,3783,4,0,0
1777327297168,20350,3041,-830,-278,-198,-1205,25.09,33,43,3783,4,0,0
1777327297168,20704,1954,-2173,-122,161,-1258,25.09,33,43,3783,4,0,0
1777327297168,20783,897,-4126,-79,346,-1124,25.09,33,43,3783,4,0,0
1777327297168,21761,966,-5766,-223,359,-820,25.09,33,43,3783,4,0,0
1777327297234,23890,2619,-7074,-430,249,-422,25.09,33,43,3783,4,0,0
1777327297234,25237,4000,-7638,-540,3,-172,25.09,33,43,3783,4,0,0
1777327297318,23991,3366,-7087,-475,-271,-130,25.09,33,43,3783,4,0,0
1777327297318,20629,1219,-5442,-377,-423,-136,25.09,33,43,3783,4,0,0
1777327297318,18343,-373,-4588,-67,-391,29,25.09,33,43,3783,4,0,0
1777327297318,17351,-484,-3682,441,-271,317,25.09,33,43,3783,4,0,0
1777327297318,16604,256,-2591,1035,-133,646,25.09,33,43,3783,4,0,0
1777327297351,16671,1749,-2127,1437,149,853,25.09,33,43,3783,4,0,0
1777327297351,17142,2622,-2509,1665,416,897,25.09,33,43,3783,4,0,0
1777327297385,16733,2541,-2932,1743,620,934,25.09,33,43,3783,4,0,0
1777327297385,15889,2215,-4197,1636,863,1142,25.09,33,43,3783,4,0,0
1777327297451,16062,2682,-5089,1496,902,1351,25.09,33,43,3783,4,0,0
1777327297451,16658,3437,-5911,1349,844,1523,25.09,33,43,3783,4,0,0
1777327297451,16465,3886,-5966,1180,710,1644,25.09,33,43,3783,4,0,0
1777327297484,15599,3836,-5960,1015,616,1738,25.09,33,43,3783,4,0,0
1777327297484,15316,4117,-5848,796,564,1804,25.09,33,43,3783,4,0,0
1777327297551,15369,4576,-6151,657,484,1871,25.09,34,45,3778,4,0,0
1777327297551,15107,4948,-5957,597,393,1931,25.09,34,45,3778,4,0,0
1777327297584,14799,5576,-5670,602,332,1936,25.09,34,45,3778,4,0,0
1777327297584,14655,6017,-5182,642,315,1873,25.09,34,45,3778,4,0,0
1777327297634,14649,6358,-4738,690,348,1752,25.09,34,45,3778,4,0,0
1777327297634,14874,6499,-4620,713,392,1591,25.09,34,45,3778,4,0,0
1777327297634,15114,6556,-4572,712,381,1428,25.09,34,45,3778,4,0,0
1777327297684,15792,6921,-4178,681,354,1282,25.09,34,45,3778,4,0,0
1777327297684,16157,7295,-3825,610,370,1175,25.09,34,45,3778,4,0,0
1777327297717,16486,7865,-3619,497,431,1080,25.09,34,45,3778,4,0,0
1777327297717,16499,8209,-3926,324,482,919,25.09,34,45,3778,4,0,0
1777327297751,16161,7983,-4288,114,438,691,25.09,34,45,3778,4,0,0
1777327297751,15760,7565,-4122,-28,331,444,25.09,34,45,3778,4,0,0
1777327297851,17092,8247,-4089,-141,277,277,25.09,34,45,3778,4,0,0
1777327297851,17994,8987,-3827,-279,204,71,25.09,34,45,3778,4,0,0
1777327297851,16650,8264,-3473,-439,136,-264,25.09,34,45,3778,4,0,0
1777327297851,15331,6758,-3589,-606,96,-628,25.09,34,45,3778,4,0,0
1777327297851,14555,5276,-4199,-654,-9,-897,25.09,34,45,3778,4,0,0
1777327297884,14132,4147,-3809,-558,-201,-1028,25.09,34,45,3778,4,0,0
1777327297884,13992,3911,-2552,-419,-318,-1045,25.09,34,45,3778,4,0,0
1777327297951,15005,4415,-1943,-309,-294,-1080,25.09,34,45,3778,4,0,0
1777327297951,16126,4687,-1983,-237,-256,-1180,25.09,34,45,3778,4,0,0
1777327297984,15943,4133,-1859,-197,-243,-1253,25.09,34,45,3778,4,0,0
1777327297984,15216,3389,-1716,-204,-211,-1223,25.09,34,45,3778,4,0,0
1777327297984,14040,3013,-1903,-285,-147,-1107,25.09,34,45,3778,4,0,0
1777327298017,13338,3069,-2599,-439,-139,-997,25.09,34,45,3778,4,0,0
1777327298017,12725,3457,-3077,-623,-210,-965,25.09,34,45,3778,4,0,0
1777327298084,12769,3620,-3249,-761,-312,-1016,25.09,34,45,3778,4,0,0
1777327298084,12705,3268,-3105,-832,-394,-1097,25.09,34,45,3778,4,0,0
1777327298117,12951,3018,-2966,-865,-447,-1157,25.09,34,45,3778,4,0,0
1777327298117,13278,2851,-2813,-851,-456,-1214,25.09,34,45,3778,4,0,0
1777327298150,13882,2691,-3004,-808,-440,-1250,25.09,34,45,3778,4,0,0
1777327298150,14801,2733,-2987,-757,-441,-1259,25.09,34,45,3778,4,0,0
1777327298150,15301,2652,-3038,-695,-447,-1260,25.09,34,45,3778,4,0,0
1777327298217,15645,2649,-3107,-665,-460,-1242,25.09,34,45,3778,4,0,0
1777327298217,16466,2677,-3138,-678,-476,-1229,25.09,34,45,3778,4,0,0
1777327298251,17018,2824,-3048,-695,-506,-1195,25.09,34,45,3778,4,0,0
1777327298317,17530,3105,-2973,-728,-517,-1167,25.09,34,45,3778,4,0,0
1777327298317,18541,3489,-2938,-755,-512,-1169,25.09,34,45,3778,4,0,0
1777327298317,19424,3609,-2698,-764,-489,-1198,25.09,34,45,3778,4,0,0
1777327298350,20174,3290,-2750,-746,-430,-1230,25.09,34,45,3778,4,0,0
1777327298350,20115,2367,-2946,-714,-364,-1221,25.09,34,45,3778,4,0,0
1777327298350,19492,1279,-3418,-686,-301,-1126,25.09,34,45,3778,4,0,0
1777327298384,20662,1671,-4179,-661,-213,-918,25.09,34,45,3778,4,0,0
1777327298384,22877,3114,-4959,-605,-186,-678,25.09,34,45,3778,4,0,0
1777327298451,24453,4290,-5074,-541,-219,-592,25.09,34,45,3778,4,0,0
1777327298451,24002,3319,-4768,-480,-247,-669,25.09,34,45,3778,4,0,0
1777327298484,21173,524,-4119,-337,-192,-702,25.09,34,45,3778,4,0,0
1777327298484,18930,-1647,-3806,-49,-34,-533,25.09,34,45,3778,4,0,0
1777327298519,17382,-2435,-3738,437,192,-119,25.09,34,45,3778,4,0,0
1777327298519,17394,-1136,-3662,1069,381,418,25.09,34,45,3778,4,0,0
1777327298519,17819,1755,-3515,1636,608,896,25.11,35,47,3851,4,0,0
1777327298584,17450,2183,-3704,1627,751,998,25.11,35,47,3851,4,0,0
1777327298584,16750,1970,-4236,1449,855,1137,25.11,35,47,3851,4,0,0
1777327298617,16268,2152,-5042,1272,895,1362,25.11,35,47,3851,4,0,0
1777327298617,16478,2898,-5478,1133,864,1592,25.11,35,47,3851,4,0,0
1777327298651,16972,3600,-6137,1059,800,1745,25.11,35,47,3851,4,0,0
1777327298651,16347,4095,-5844,909,612,1858,25.11,35,47,3851,4,0,0
1777327298717,15447,4315,-5472,736,531,1943,25.11,35,47,3851,4,0,0
1777327298717,15553,4958,-5426,598,523,2010,25.11,35,47,3851,4,0,0
1777327298717,16135,5749,-5654,561,536,2039,25.11,35,47,3851,4,0,0
1777327298800,16056,6289,-5535,634,526,2009,25.11,35,47,3851,4,0,0
1777327298801,15534,6666,-5300,736,551,1940,25.11,35,47,3851,4,0,0
1777327298801,15111,6922,-5151,807,612,1833,25.11,35,47,3851,4,0,0
1777327298801,15452,7149,-5448,841,669,1680,25.11,35,47,3851,4,0,0
1777327298834,15240,7078,-5537,856,649,1511,25.11,35,47,3851,4,0,0
1777327298834,14467,6737,-5098,842,587,1338,25.11,35,47,3851,4,0,0
1777327298900,14720,6938,-4817,787,577,1201,25.11,35,47,3851,4,0,0
1777327298900,15926,7806,-4958,691,567,1089,25.11,35,47,3851,4,0,0
1777327298900,16684,8303,-4859,571,505,945,25.11,35,47,3851,4,0,0
1777327298967,16970,8518,-4615,425,444,767,25.11,35,47,3851,4,0,0
1777327298967,15789,7951,-4378,262,382,566,25.11,35,47,3851,4,0,0
1777327298967,15533,7685,-4345,113,310,423,25.11,35,47,3851,4,0,0
1777327298967,16594,8875,-3888,3,244,342,25.11,35,47,3851,4,0,0
1777327299034,16926,9861,-3744,-122,191,219,25.11,35,47,3851,4,0,0
1777327299034,16299,10276,-3590,-280,108,-21,25.11,35,47,3851,4,0,0
1777327299067,14365,9172,-3669,-509,-28,-444,25.11,35,47,3851,4,0,0
1777327299067,12748,7130,-3532,-654,-225,-918,25.11,35,47,3851,4,0,0
1777327299067,12316,5443,-2882,-604,-385,-1229,25.11,35,47,3851,4,0,0
1777327299100,13178,4874,-1817,-391,-458,-1376,25.11,35,47,3851,4,0,0
1777327299101,14870,4913,-889,-95,-423,-1469,25.11,35,47,3851,4,0,0
1777327299167,15920,4712,-434,123,-305,-1558,25.11,35,47,3851,4,0,0
1777327299167,16126,4140,-800,152,-148,-1551,25.11,35,47,3851,4,0,0
1777327299200,15806,3803,-1787,3,-83,-1437,25.11,35,47,3851,4,0,0
1777327299200,15343,3352,-2820,-301,-118,-1281,25.11,35,47,3851,4,0,0
1777327299233,14389,2854,-3440,-657,-244,-1096,25.11,35,47,3851,4,0,0
1777327299233,13489,2764,-3623,-998,-372,-900,25.11,35,47,3851,4,0,0
1777327299233,13211,3003,-4289,-1214,-469,-777,25.11,35,47,3851,4,0,0
1777327299300,13314,3572,-4136,-1344,-589,-767,25.11,35,47,3851,4,0,0
1777327299300,13189,3798,-3815,-1319,-664,-855,25.11,35,47,3851,4,0,0
1777327299333,13438,3720,-3501,-1173,-676,-976,25.11,35,47,3851,4,0,0
1777327299334,13850,3382,-3296,-986,-637,-1089,25.11,35,47,3851,4,0,0
1777327299367,14459,3086,-3170,-826,-578,-1145,25.11,35,47,3851,4,0,0
1777327299367,15124,2893,-3253,-697,-516,-1143,25.11,35,47,3851,4,0,0
1777327299434,15570,2757,-3241,-609,-472,-1107,25.11,35,47,3851,4,0,0
1777327299434,15746,2754,-3347,-558,-443,-1052,25.11,35,47,3851,4,0,0
1777327299434,16136,2917,-3424,-515,-430,-1020,25.11,35,47,3851,4,0,0
1777327299467,16100,2729,-3363,-456,-464,-1019,25.11,35,47,3851,4,0,0
1777327299467,16206,2513,-2974,-398,-490,-1017,25.11,35,47,3851,4,0,0
1777327299500,17193,2742,-2776,-324,-479,-984,25.11,35,47,3851,4,0,0
1777327299567,18623,3345,-2631,-229,-450,-953,25.1,35,48,3868,4,0,0
1777327299567,19833,3475,-2528,-129,-408,-950,25.1,35,48,3868,4,0,0
1777327299567,20200,3091,-2604,-90,-321,-919,25.1,35,48,3868,4,0,0
1777327299617,20693,2740,-3041,-168,-206,-809,25.1,35,48,3868,4,0,0
1777327299617,22799,3539,-4332,-291,-81,-585,25.1,35,48,3868,4,0,0
1777327299656,24322,4530,-5301,-358,-100,-347,25.1,35,48,3868,4,0,0
1777327299656,22382,3537,-5540,-320,-245,-245,25.1,35,48,3868,4,0,0
1777327299656,19356,1525,-4620,-170,-296,-239,25.1,35,48,3868,4,0,0
1777327299700,17342,-15,-3773,159,-215,-116,25.1,35,48,3868,4,0,0
1777327299700,16256,-459,-2841,695,-86,123,25.1,35,48,3868,4,0,0
1777327299749,16623,643,-1413,1264,112,442,25.1,35,48,3868,4,0,0
1777327299749,16951,1857,-913,1594,436,622,25.1,35,48,3868,4,0,0
1777327299799,17341,2411,-1249,1682,766,696,25.1,35,48,3868,4,0,0
1777327299799,17276,2337,-2213,1555,1054,808,25.1,35,48,3868,4,0,0
1777327299799,17457,2352,-4133,1382,1256,990,25.1,35,48,3868,4,0,0
1777327299866,17376,2687,-5702,1231,1265,1242,25.1,35,48,3868,4,0,0
1777327299866,17052,3266,-6749,1040,1131,1472,25.1,35,48,3868,4,0,0
1777327299866,16729,3715,-7469,865,989,1625,25.1,35,48,3868,4,0,0
1777327299866,16563,4122,-7115,650,764,1741,25.1,35,48,3868,4,0,0
1777327299932,15779,4335,-6747,526,549,1833,25.1,35,48,3868,4,0,0
1777327299932,15309,4655,-6113,436,430,1885,25.1,35,48,3868,4,0,0
1777327299965,15275,5216,-5247,450,415,1919,25.1,35,48,3868,4,0,0
1777327299966,14884,5628,-4781,588,500,1897,25.1,35,48,3868,4,0,0
1777327299966,14640,6044,-4782,769,643,1819,25.1,35,48,3868,4,0,0
1777327299999,14315,6279,-5171,907,739,1673,25.1,35,48,3868,4,0,0
1777327299999,13782,6248,-5358,969,757,1487,25.1,35,48,3868,4,0,0
1777327300049,13537,5921,-5366,960,728,1297,25.1,35,48,3868,4,0,0
1777327300049,13463,5835,-5164,914,668,1161,25.1,35,48,3868,4,0,0
1777327300115,14223,6402,-4983,826,624,1073,25.1,35,48,3868,4,0,0
1777327300116,15278,7464,-4947,686,585,949,25.1,35,48,3868,4,0,0
1777327300149,15913,8071,-4879,506,524,778,25.1,35,48,3868,4,0,0
1777327300149,16367,8283,-4939,268,442,541,25.1,35,48,3868,4,0,0
1777327300149,16048,7645,-5071,22,303,288,25.1,35,48,3868,4,0,0
1777327300182,15626,6995,-4696,-162,142,113,25.1,35,48,3868,4,0,0
1777327300182,16719,7651,-4089,-269,44,17,25.1,35,48,3868,4,0,0
1777327300249,17267,8664,-3672,-368,2,-83,25.1,35,48,3868,4,0,0
1777327300249,17008,8902,-3696,-458,-43,-305,25.1,35,48,3868,4,0,0
1777327300282,16309,8452,-3609,-541,-118,-602,25.1,35,48,3868,4,0,0
1777327300282,14824,6894,-3435,-556,-223,-925,25.1,35,48,3868,4,0,0
1777327300315,14024,5590,-2800,-435,-321,-1142,25.1,35,48,3868,4,0,0
1777327300315,13962,4826,-2028,-230,-371,-1290,25.1,35,48,3868,4,0,0
1777327300315,14653,4388,-1597,0,-379,-1423,25.1,35,48,3868,4,0,0
1777327300382,15187,3847,-1116,189,-403,-1516,25.1,35,48,3868,4,0,0
1777327300382,15160,3493,-740,266,-387,-1502,25.1,35,48,3868,4,0,0
1777327300415,15203,3566,-930,205,-335,-1392,25.1,35,48,3868,4,0,0
1777327300415,15286,3358,-1504,-33,-313,-1259,25.1,35,48,3868,4,0,0
1777327300448,14729,3005,-1822,-357,-346,-1076,25.1,35,48,3868,4,0,0
1777327300448,14507,2971,-2251,-694,-377,-845,25.1,35,48,3868,4,0,0
1777327300515,13939,3491,-2437,-1007,-436,-646,25.1,35,48,3868,4,0,0
1777327300515,13867,3932,-3182,-1247,-506,-566,25.1,35,48,3868,4,0,0
1777327300515,13756,4057,-3797,-1416,-624,-593,25.1,36,50,3871,4,0,0
1777327300565,13821,3996,-3805,-1486,-745,-681,25.1,36,50,3871,4,0,0
1777327300566,13938,3620,-3507,-1440,-819,-767,25.1,36,50,3871,4,0,0
1777327300598,14143,3381,-2994,-1307,-819,-821,25.1,36,50,3871,4,0,0
1777327300599,14236,3156,-2525,-1103,-759,-856,25.1,36,50,3871,4,0,0
1777327300632,14409,2811,-2497,-910,-665,-862,25.1,36,50,3871,4,0,0
1777327300632,14406,2584,-2637,-790,-586,-837,25.1,36,50,3871,4,0,0
1777327300698,14320,2468,-2905,-744,-551,-802,25.1,36,50,3871,4,0,0
1777327300698,14462,2436,-3272,-739,-569,-775,25.1,36,50,3871,4,0,0
1777327300699,14781,2449,-3409,-732,-633,-757,25.1,36,50,3871,4,0,0
1777327300732,15306,2542,-3103,-723,-677,-708,25.1,36,50,3871,4,0,0
1777327300732,16383,3003,-2870,-734,-661,-642,25.1,36,50,3871,4,0,0
1777327300832,18004,3511,-3214,-799,-584,-567,25.1,36,50,3871,4,0,0
1777327300832,18048,2972,-3901,-900,-558,-509,25.1,36,50,3871,4,0,0
1777327300832,18415,2529,-4577,-1026,-560,-371,25.1,36,50,3871,4,0,0
1777327300832,22155,4510,-5373,-1131,-487,-94,25.1,36,50,3871,4,0,0
1777327300865,25194,6744,-5921,-1197,-502,164,25.1,36,50,3871,4,0,0
1777327300865,24599,6598,-5869,-1253,-606,157,25.1,36,50,3871,4,0,0
1777327300865,21138,3641,-5892,-1256,-683,-32,25.1,36,50,3871,4,0,0
1777327300965,17988,869,-5355,-1103,-663,-9,25.1,36,50,3871,4,0,0
1777327300965,16901,-275,-5273,-749,-635,240,25.1,36,50,3871,4,0,0
1777327300965,17523,187,-4236,-112,-721,614,25.1,36,50,3871,4,0,0
1777327300965,17555,1358,-1915,493,-724,905,25.1,36,50,3871,4,0,0
1777327300999,17300,2139,-477,762,-481,1038,25.1,36,50,3871,4,0,0
1777327300999,17843,2450,-500,796,-151,1165,25.1,36,50,3871,4,0,0
1777327301031,18659,2819,-1509,728,134,1378,25.1,36,50,3871,4,0,0
1777327301032,18842,3320,-2719,644,268,1627,25.1,36,50,3871,4,0,0
1777327301032,18767,4036,-3405,575,286,1867,25.1,36,50,3871,4,0,0
1777327301132,18071,4671,-3646,506,250,2032,25.1,36,50,3871,4,0,0
1777327301132,17247,5112,-3321,442,214,2106,25.1,36,50,3871,4,0,0
1777327301132,17026,5605,-3271,451,214,2129,25.1,36,50,3871,4,0,0
1777327301132,16633,5870,-3275,449,168,2110,25.1,36,50,3871,4,0,0
1777327301182,15748,5827,-2702,476,161,2058,25.1,36,50,3871,4,0,0
1777327301182,15151,5785,-2165,487,236,2003,25.1,36,50,3871,4,0,0
1777327301215,15337,6064,-2054,499,347,1953,25.1,36,50,3871,4,0,0
1777327301215,14847,6279,-2060,473,422,1880,25.1,36,50,3871,4,0,0
1777327301215,14109,6424,-2161,354,478,1774,25.1,36,50,3871,4,0,0
1777327301265,13637,6552,-2066,173,490,1630,25.1,36,50,3871,4,0,0
1777327301265,13055,6548,-1990,-41,495,1443,25.1,36,50,3871,4,0,0
1777327301331,12678,6638,-1870,-249,480,1251,25.1,36,50,3871,4,0,0
1777327301331,12848,6844,-2181,-437,464,1045,25.1,36,50,3871,4,0,0
1777327301364,13229,7248,-2149,-633,418,814,25.1,36,50,3871,4,0,0
1777327301364,13690,7674,-2328,-825,381,572,25.1,36,50,3871,4,0,0
1777327301398,13780,7599,-2519,-1038,337,288,25.1,36,50,3871,4,0,0
1777327301398,14175,7225,-2516,-1204,283,-5,25.1,36,50,3871,4,0,0
1777327301398,16195,7794,-2256,-1276,289,-220,25.1,36,50,3871,4,0,0
1777327301465,18870,9300,-2472,-1343,366,-350,25.1,36,50,3871,4,0,0
1777327301465,19804,9914,-2676,-1492,446,-515,25.1,36,50,3871,4,0,0
1777327301498,18795,9254,-3765,-1775,509,-833,25.1,36,50,3871,4,0,0
1777327301498,18097,7648,-5485,-2090,422,-1193,25.1,36,50,3871,4,0,0
1777327301548,17285,5673,-6052,-2216,113,-1424,25.1,37,52,3871,4,0,0
1777327301548,17096,4231,-4971,-2126,-216,-1534,25.1,37,52,3871,4,0,0
1777327301598,17861,3367,-3544,-1904,-367,-1569,25.1,37,52,3871,4,0,0
1777327301598,18203,2673,-2020,-1622,-357,-1528,25.1,37,52,3871,4,0,0
1777327301598,17457,2381,-1087,-1421,-192,-1343,25.1,37,52,3871,4,0,0
1777327301681,16476,2457,-1314,-1426,43,-1099,25.1,37,52,3871,4,0,0
1777327301681,15930,2497,-2591,-1609,214,-866,25.1,37,52,3871,4,0,0
1777327301681,15205,2344,-3805,-1907,240,-628,25.1,37,52,3871,4,0,0
1777327301681,14728,2516,-4769,-2270,185,-367,25.1,37,52,3871,4,0,0
1777327301731,14552,3223,-5049,-2621,90,-153,25.1,37,52,3871,4,0,0
1777327301731,14213,3524,-6212,-2882,27,-33,25.1,37,52,3871,4,0,0
1777327301765,13973,3792,-6723,-3066,-112,11,25.1,37,52,3871,4,0,0
1777327301782,13689,3759,-6899,-3119,-284,10,25.1,37,52,3871,4,0,0
1777327301782,13285,3407,-6678,-3007,-444,-11,25.1,37,52,3871,4,0,0
1777327301815,12988,3059,-6438,-2802,-547,-16,25.1,37,52,3871,4,0,0
1777327301815,13050,3053,-6038,-2589,-633,-11,25.1,37,52,3871,4,0,0
1777327301865,12871,3070,-5618,-2419,-685,-17,25.1,37,52,3871,4,0,0
1777327301865,12699,3202,-5438,-2309,-723,-40,25.1,37,52,3871,4,0,0
1777327301898,12548,3422,-5021,-2165,-783,-137,25.1,37,52,3871,4,0,0
1777327301898,12758,3537,-4841,-2044,-791,-238,25.1,37,52,3871,4,0,0
1777327301932,13083,3670,-4788,-1940,-793,-354,25.1,37,52,3871,4,0,0
1777327301932,13658,3563,-4984,-1861,-804,-499,25.1,37,52,3871,4,0,0
1777327301932,14216,3120,-5174,-1778,-853,-645,25.1,37,52,3871,4,0,0
1777327301997,14952,2432,-5204,-1680,-942,-756,25.1,37,52,3871,4,0,0
1777327301997,15430,1658,-4966,-1579,-1047,-794,25.1,37,52,3871,4,0,0
1777327302065,17987,2227,-4600,-1498,-1069,-707,25.1,37,52,3871,4,0,0
1777327302065,23570,4948,-5147,-1459,-973,-497,25.1,37,52,3871,4,0,0
1777327302065,26432,6711,-5556,-1491,-948,-350,25.1,37,52,3871,4,0,0
1777327302114,23119,4728,-5235,-1690,-943,-449,25.1,37,52,3871,4,0,0
1777327302114,19053,1144,-6369,-1896,-923,-521,25.1,37,52,3871,4,0,0
1777327302114,16889,-866,-6899,-1869,-1071,-331,25.1,37,52,3871,4,0,0
1777327302114,16174,-1543,-6265,-1558,-1392,-41,25.1,37,52,3871,4,0,0
1777327302181,17005,-667,-3326,-1044,-1730,231,25.1,37,52,3871,4,0,0
1777327302181,17206,113,-196,-657,-1747,327,25.1,37,52,3871,4,0,0
1777327302214,17779,390,1801,-381,-1437,380,25.1,37,52,3871,4,0,0
1777327302214,19248,612,2102,-233,-939,534,25.1,37,52,3871,4,0,0
1777327302248,20397,885,731,-233,-472,782,25.1,37,52,3871,4,0,0
1777327302248,20455,1047,-1261,-314,-213,1122,25.1,37,52,3871,4,0,0
1777327302314,20147,1372,-2723,-398,-163,1511,25.1,37,52,3871,4,0,0
1777327302314,19397,2176,-3127,-479,-251,1888,25.1,37,52,3871,4,0,0
1777327302314,18761,3340,-2897,-567,-361,2135,25.1,37,52,3871,4,0,0
1777327302364,18148,4181,-2252,-627,-425,2225,25.1,37,52,3871,4,0,0
1777327302364,18032,4533,-1676,-633,-413,2234,25.1,37,52,3871,4,0,0
1777327302397,18172,4925,-1730,-582,-356,2217,25.1,37,52,3871,4,0,0
1777327302397,17689,5052,-1047,-608,-261,2188,25.1,37,52,3871,4,0,0
1777327302448,17513,5222,-1083,-697,-84,2152,25.1,37,52,3871,4,0,0
1777327302448,17224,5416,-1685,-830,88,2110,25.1,37,52,3871,4,0,0
1777327302481,16689,5590,-2581,-927,204,2049,25.1,37,52,3871,4,0,0
1777327302481,16046,5664,-3242,-970,259,1959,25.1,37,52,3871,4,0,0
1777327302481,15442,5603,-3670,-1012,238,1834,25.1,37,52,3871,4,0,0
1777327302548,14528,5367,-3622,-1061,175,1677,25.1,39,53,3868,4,0,0
1777327302548,13753,4805,-3083,-1102,121,1541,25.1,39,53,3868,4,0,0
1777327302581,13135,4898,-2959,-1114,101,1440,25.1,39,53,3868,4,0,0
1777327302581,12742,5265,-2704,-1117,101,1310,25.1,39,53,3868,4,0,0
1777327302614,12273,5654,-2471,-1099,132,1132,25.1,39,53,3868,4,0,0
1777327302614,11880,5918,-2351,-1092,191,881,25.1,39,53,3868,4,0,0
1777327302680,11508,5881,-2433,-1072,236,583,25.1,39,53,3868,4,0,0
1777327302680,11312,5671,-2399,-1040,271,256,25.1,39,53,3868,4,0,0
1777327302680,11301,5254,-2332,-1014,311,-91,25.1,39,53,3868,4,0,0
1777327302714,11551,4923,-2237,-1006,345,-411,25.1,39,53,3868,4,0,0
1777327302714,11929,4439,-2394,-1053,391,-693,25.1,39,53,3868,4,0,0
1777327302747,12591,4117,-2692,-1166,424,-931,25.1,39,53,3868,4,0,0
1777327302747,13995,4192,-3102,-1314,441,-1100,25.1,39,53,3868,4,0,0
1777327302813,16637,5220,-3891,-1494,499,-1198,25.1,39,53,3868,4,0,0
1777327302813,19463,6452,-4732,-1738,545,-1277,25.1,39,53,3868,4,0,0
1777327302847,21299,7093,-5839,-2070,586,-1407,25.1,39,53,3868,4,0,0
1777327302847,21506,6037,-7322,-2498,544,-1597,25.1,39,53,3868,4,0,0
1777327302847,20603,3994,-8563,-2842,365,-1723,25.1,39,53,3868,4,0,0
1777327302898,18881,2147,-8659,-2976,78,-1672,25.1,39,53,3868,4,0,0
1777327302898,17702,915,-8141,-2928,-199,-1556,25.1,39,53,3868,4,0,0
1777327302947,17344,417,-6768,-2643,-446,-1420,25.1,39,53,3868,4,0,0
1777327302947,17021,195,-5004,-2232,-522,-1303,25.1,39,53,3868,4,0,0
1777327302981,16622,227,-3605,-1820,-366,-1184,25.1,39,53,3868,4,0,0
1777327302981,17135,399,-4093,-1473,-113,-1018,25.1,39,53,3868,4,0,0
1777327303080,18236,543,-5732,-1251,7,-609,25.1,39,53,3868,4,0,0
1777327303080,18208,376,-6236,-1252,-82,-198,25.1,39,53,3868,4,0,0
1777327303080,17212,780,-5983,-1355,-251,314,25.1,39,53,3868,4,0,0
1777327303080,16308,1899,-4799,-1525,-353,743,25.1,39,53,3868,4,0,0
1777327303080,15900,3154,-4777,-1648,-381,1020,25.1,39,53,3868,4,0,0
1777327303114,15301,4063,-4645,-1674,-469,1126,25.1,39,53,3868,4,0,0
1777327303114,14192,4522,-3985,-1615,-546,1108,25.1,39,53,3868,4,0,0
1777327303147,13309,4798,-3264,-1422,-558,995,25.1,39,53,3868,4,0,0
1777327303147,13058,4942,-2128,-1102,-535,831,25.1,39,53,3868,4,0,0
1777327303213,13224,4853,-931,-751,-480,631,25.1,39,53,3868,4,0,0
1777327303213,13008,4367,193,-510,-343,464,25.1,39,53,3868,4,0,0
1777327303213,12841,4132,661,-368,-128,393,25.1,39,53,3868,4,0,0
1777327303247,13084,4121,105,-325,97,346,25.1,39,53,3868,4,0,0
1777327303247,13982,4367,-1141,-377,202,267,25.1,39,53,3868,4,0,0
1777327303280,14551,4247,-2002,-453,91,127,25.1,39,53,3868,4,0,0
1777327303280,14645,3908,-2028,-505,-101,5,25.1,39,53,3868,4,0,0
1777327303347,15234,3839,-1648,-548,-260,-94,25.1,39,53,3868,4,0,0
1777327303347,15792,3926,-776,-565,-342,-199,25.1,39,53,3868,4,0,0
1777327303380,16291,3794,-863,-547,-364,-312,25.1,39,53,3868,4,0,0
1777327303381,16214,3312,-733,-541,-375,-416,25.1,39,53,3868,4,0,0
1777327303381,16001,2642,-712,-561,-330,-485,25.1,39,53,3868,4,0,0
1777327303447,16254,2082,-841,-592,-259,-493,25.1,39,53,3868,4,0,0
1777327303447,16325,1786,-1045,-535,-178,-451,25.1,39,53,3868,4,0,0
1777327303480,16637,1838,-1395,-394,-129,-375,25.1,39,53,3868,4,0,0
1777327303480,16893,2021,-1709,-288,-101,-318,25.1,39,53,3868,4,0,0
1777327303514,17083,1993,-1937,-227,-68,-292,25.1,39,53,3868,4,0,0
1777327303514,17462,1694,-2196,-175,-78,-246,25.1,39,53,3868,4,0,0
1777327303581,17311,1483,-2103,-99,-93,-154,25.09,40,54,3830,4,0,0
1777327303581,17239,1500,-1818,12,-79,-37,25.09,40,54,3830,4,0,0
1777327303581,16904,1740,-1437,154,-21,66,25.09,40,54,3830,4,0,0
1777327303614,16744,2147,-1141,359,98,139,25.09,40,54,3830,4,0,0
1777327303614,16523,2555,-1242,607,233,187,25.09,40,54,3830,4,0,0
1777327303648,16311,2810,-1488,783,330,208,25.09,40,54,3830,4,0,0
1777327303648,16191,2775,-1783,855,365,222,25.09,40,54,3830,4,0,0
1777327303714,16217,2740,-1932,863,364,266,25.09,40,54,3830,4,0,0
1777327303714,16123,2930,-1819,828,341,333,25.09,40,54,3830,4,0,0
1777327303747,15742,3009,-1589,787,332,388,25.09,40,54,3830,4,0,0
1777327303747,15655,3120,-1618,728,354,438,25.09,40,54,3830,4,0,0
1777327303747,15892,3517,-1953,662,358,484,25.09,40,54,3830,4,0,0
1777327303781,16113,3888,-1841,616,334,512,25.09,40,54,3830,4,0,0
1777327303781,15832,3966,-1883,566,322,542,25.09,40,54,3830,4,0,0
1777327303847,15719,4195,-2116,464,318,556,25.09,40,54,3830,4,0,0
1777327303847,15747,4418,-2500,378,282,543,25.09,40,54,3830,4,0,0
1777327303881,15654,4576,-2640,324,216,517,25.09,40,54,3830,4,0,0
1777327303881,15521,4546,-2472,305,157,482,25.09,40,54,3830,4,0,0
1777327303914,15320,4544,-2253,295,114,443,25.09,40,54,3830,4,0,0
1777327303914,15236,4575,-2086,284,82,397,25.09,40,54,3830,4,0,0
1777327303914,15366,4595,-1901,247,31,341,25.09,40,54,3830,4,0,0
1777327304014,15172,4302,-1781,192,-19,284,25.09,40,54,3830,4,0,0
1777327304014,15083,4231,-1438,124,-95,271,25.09,40,54,3830,4,0,0
1777327304014,14999,4077,-1033,23,-116,250,25.09,40,54,3830,4,0,0
1777327304014,15086,4132,-942,-76,-94,229,25.09,40,54,3830,4,0,0
1777327304048,15138,4057,-1093,-155,-82,209,25.09,40,54,3830,4,0,0
1777327304048,15029,4138,-1142,-217,-97,186,25.09,40,54,3830,4,0,0
1777327304114,14976,3983,-1202,-290,-110,141,25.09,40,54,3830,4,0,0
1777327304114,14928,3852,-1069,-357,-113,74,25.09,40,54,3830,4,0,0
1777327304114,15032,3973,-1097,-401,-83,24,25.09,40,54,3830,4,0,0
1777327304147,15493,4154,-1584,-415,-82,-51,25.09,40,54,3830,4,0,0
1777327304147,15484,3703,-1657,-413,-95,-150,25.09,40,54,3830,4,0,0
1777327304181,15611,3351,-1659,-449,-153,-201,25.09,40,54,3830,4,0,0
1777327304181,15679,3142,-1266,-520,-165,-234,25.09,40,54,3830,4,0,0
1777327304280,15625,2987,-1189,-592,-142,-271,25.09,40,54,3830,4,0,0
1777327304347,15698,2898,-1541,-651,-83,-291,25.09,40,54,3830,4,0,0
1777327304347,16029,2897,-2114,-685,-69,-327,25.09,40,54,3830,4,0,0
1777327304347,16177,2742,-2345,-660,-102,-354,25.09,40,54,3830,4,0,0
1777327304347,16229,2474,-2263,-603,-120,-359,25.09,40,54,3830,4,0,0
1777327304347,16419,2394,-2248,-540,-103,-348,25.09,40,54,3830,4,0,0
1777327304347,16606,2317,-2294,-487,-73,-341,25.09,40,54,3830,4,0,0
1777327304380,16575,2140,-2427,-437,-64,-336,25.09,40,54,3830,4,0,0
1777327304380,16515,2010,-2499,-395,-62,-324,25.09,40,54,3830,4,0,0
1777327304414,16542,1901,-2640,-339,-57,-307,25.09,40,54,3830,4,0,0
1777327304414,16566,1822,-2608,-261,-80,-281,25.09,40,54,3830,4,0,0
1777327304480,16493,1672,-2382,-180,-98,-254,25.09,40,54,3830,4,0,0
1777327304480,16434,1420,-1934,-121,-73,-208,25.09,40,54,3830,4,0,0
1777327304480,16362,1364,-1846,-39,-20,-134,25.09,40,54,3830,4,0,0
1777327304514,16644,1443,-1936,1,11,-47,25.09,40,54,3830,4,0,0
1777327304514,16307,1530,-2000,-24,26,40,25.09,40,54,3830,4,0,0
1777327304563,16265,1752,-2077,-76,19,118,25.1,40,55,3861,4,0,0
1777327304563,16113,1968,-2129,-113,10,168,25.1,40,55,3861,4,0,0
1777327304597,16174,2214,-2180,-103,-7,200,25.1,40,55,3861,4,0,0
1777327304597,16221,2399,-2052,-57,-14,216,25.1,40,55,3861,4,0,0
1777327304681,16190,2595,-1953,1,7,218,25.1,40,55,3861,4,0,0
1777327304682,16196,2647,-1874,72,28,216,25.1,40,55,3861,4,0,0
1777327304682,15995,2589,-1868,125,52,215,25.1,40,55,3861,4,0,0
1777327304682,15987,2564,-1874,159,73,222,25.1,40,55,3861,4,0,0
1777327304682,15967,2511,-1894,175,84,242,25.1,40,55,3861,4,0,0
1777327304729,15942,2507,-1924,172,82,276,25.1,40,55,3861,4,0,0
1777327304729,15837,2573,-1900,162,82,312,25.1,40,55,3861,4,0,0
1777327304795,15824,2785,-1847,150,82,345,25.1,40,55,3861,4,0,0
1777327304795,15774,2999,-1898,143,88,354,25.1,40,55,3861,4,0,0
1777327304828,15689,3116,-1990,141,87,349,25.1,40,55,3861,4,0,0
1777327304828,15702,3136,-1961,125,76,341,25.1,40,55,3861,4,0,0
1777327304829,15540,3133,-1938,92,73,338,25.1,40,55,3861,4,0,0
1777327304862,15480,3280,-2067,64,67,335,25.1,40,55,3861,4,0,0
1777327304862,15587,3414,-1996,54,50,313,25.1,40,55,3861,4,0,0
1777327304928,15382,3431,-2002,48,41,284,25.1,40,55,3861,4,0,0
1777327304928,15445,3597,-1972,39,28,243,25.1,40,55,3861,4,0,0
1777327304995,15434,3550,-1845,24,16,167,25.1,40,55,3861,4,0,0
1777327305062,15251,3270,-1702,23,3,101,25.1,40,55,3861,4,0,0
1777327305062,15270,3172,-1572,31,-2,56,25.1,40,55,3861,4,0,0
1777327305062,15325,3053,-1441,37,8,18,25.1,40,55,3861,4,0,0
1777327305062,15391,2936,-1473,46,22,-9,25.1,40,55,3861,4,0,0
1777327305062,15421,2965,-1677,63,28,-29,25.1,40,55,3861,4,0,0
1777327305062,15684,2945,-1604,54,23,-62,25.1,40,55,3861,4,0,0
1777327305095,15668,2866,-1618,20,13,-123,25.1,40,55,3861,4,0,0
1777327305095,15705,2609,-1656,-5,10,-165,25.1,40,55,3861,4,0,0
1777327305195,15688,2329,-1656,-15,-8,-185,25.1,40,55,3861,4,0,0
1777327305195,15593,2153,-1485,-17,-11,-181,25.1,40,55,3861,4,0,0
1777327305195,15636,2114,-1575,-22,13,-169,25.1,40,55,3861,4,0,0
1777327305195,15877,2254,-1883,-49,24,-163,25.1,40,55,3861,4,0,0
1777327305195,15964,2252,-2074,-74,-2,-165,25.1,40,55,3861,4,0,0
1777327305228,15992,2272,-1973,-95,-54,-184,25.1,40,55,3861,4,0,0
1777327305228,15975,2142,-1702,-82,-55,-207,25.1,40,55,3861,4,0,0
1777327305261,16072,2074,-1710,-32,-37,-216,25.1,40,55,3861,4,0,0
1777327305261,16151,2003,-1685,16,-19,-224,25.1,40,55,3861,4,0,0
1777327305328,16244,1846,-1660,40,-13,-230,25.1,40,55,3861,4,0,0
1777327305328,16188,1686,-1606,46,-7,-218,25.1,40,55,3861,4,0,0
1777327305362,16315,1535,-1580,41,5,-182,25.1,40,55,3861,4,0,0
