timestamp_ms,ax,ay,az,gx,gy,gz,temp_c,steps_hw,steps_sw,bat_mv,bat_soc,hr_bpm,spo2_pct
1777327445927,21005,5225,-4494,-638,832,-1135,25.39,40,69,3918,6,0,0
1777327445927,20502,4157,-4888,-928,865,-1167,25.39,40,69,3918,6,0,0
1777327445927,19701,2971,-5710,-1218,900,-1090,25.39,40,69,3918,6,0,0
1777327445959,19395,2527,-6850,-1415,840,-969,25.39,40,69,3918,6,0,0
1777327445959,19389,1960,-7224,-1519,677,-869,25.39,40,69,3918,6,0,0
1777327446009,19236,289,-7111,-1529,564,-827,25.39,40,69,3918,6,0,0
1777327446009,19776,-1856,-7411,-1474,538,-711,25.39,40,69,3918,6,0,0
1777327446093,21717,-4116,-8780,-1387,499,-417,25.39,40,69,3918,6,0,0
1777327446093,24432,-6046,-10284,-1254,330,-47,25.39,40,69,3918,6,0,0
1777327446093,26494,-7591,-11638,-1044,117,291,25.39,40,69,3918,6,0,0
1777327446093,25270,-8807,-11637,-832,-96,510,25.39,40,69,3918,6,0,0
1777327446093,23523,-9522,-10684,-660,-230,704,25.39,40,69,3918,6,0,0
1777327446143,21253,-9971,-9593,-519,-281,800,25.39,40,69,3918,6,0,0
1777327446143,17871,-10961,-8721,-337,-244,776,25.39,40,69,3918,6,0,0
1777327446176,14214,-11529,-7409,-66,-209,819,25.39,40,69,3918,6,0,0
1777327446176,11295,-11517,-6513,171,-174,904,25.39,40,69,3918,6,0,0
1777327446209,9270,-10873,-5553,321,-162,973,25.39,40,69,3918,6,0,0
1777327446209,6715,-10066,-4535,382,-127,1039,25.39,40,69,3918,6,0,0
1777327446275,4639,-9202,-3857,341,-85,1123,25.39,40,69,3918,6,0,0
1777327446309,2777,-8681,-3453,288,-75,1213,25.39,40,69,3918,6,0,0
1777327446309,2619,-8442,-4070,197,-82,1232,25.39,40,69,3918,6,0,0
1777327446309,3031,-8842,-5002,196,-160,1221,25.39,40,69,3918,6,0,0
1777327446309,4669,-8962,-6488,388,-289,1331,25.39,40,69,3918,6,0,0
1777327446359,7756,-8513,-8351,648,-504,1544,25.39,40,69,3918,6,0,0
1777327446359,11566,-7572,-9939,831,-796,1628,25.39,40,69,3918,6,0,0
1777327446409,15269,-7712,-10247,933,-1072,1547,25.39,40,69,3918,6,0,0
1777327446409,18511,-7288,-10297,1176,-1209,1589,25.39,40,69,3918,6,0,0
1777327446442,21582,-5290,-10118,1576,-1204,1656,25.39,40,69,3918,6,0,0
1777327446442,25892,-3557,-10585,1860,-1041,1237,25.39,40,69,3918,6,0,0
1777327446442,29773,-2551,-11177,2119,-898,622,25.39,40,69,3918,6,0,0
1777327446508,32073,-2268,-10066,2249,-770,51,25.39,40,69,3918,6,0,0
1777327446509,30824,-3176,-8013,2239,-580,-427,25.39,40,69,3918,6,0,0
1777327446526,26405,-3140,-6010,2193,-284,-535,25.38,40,69,3923,6,0,0
1777327446526,22013,-970,-5413,2133,-5,-470,25.38,40,69,3923,6,0,0
1777327446592,17377,980,-5121,2007,18,-626,25.38,40,69,3923,6,0,0
1777327446592,13460,1623,-3955,1796,-163,-939,25.38,40,69,3923,6,0,0
1777327446625,11859,1822,-2447,1569,-361,-1125,25.38,40,69,3923,6,0,0
1777327446625,10713,1459,-721,1363,-444,-1050,25.38,40,69,3923,6,0,0
1777327446626,8832,1354,1097,1173,-377,-727,25.38,40,69,3923,6,0,0
1777327446659,7164,2119,2196,992,-163,-306,25.38,40,69,3923,6,0,0
1777327446659,6246,3756,2708,767,116,90,25.38,40,69,3923,6,0,0
1777327446726,6205,5223,1977,392,447,325,25.38,40,69,3923,6,0,0
1777327446726,8506,5509,123,-128,681,373,25.38,40,69,3923,6,0,0
1777327446759,10885,3782,-979,-672,787,378,25.38,40,69,3923,6,0,0
1777327446792,14494,1138,-2336,-1177,929,343,25.38,40,69,3923,6,0,0
1777327446792,21196,-1207,-2408,-1415,823,333,25.38,40,69,3923,6,0,0
1777327446792,20427,-3223,574,-1566,826,635,25.38,40,69,3923,6,0,0
1777327446792,23493,-3320,-2263,-1953,1238,658,25.38,40,69,3923,6,0,0
1777327446843,27360,-4114,-7440,-2093,1290,224,25.38,40,69,3923,6,0,0
1777327446844,26011,-6577,-8258,-1683,1012,-285,25.38,40,69,3923,6,0,0
1777327446893,23326,-9284,-6083,-1097,729,-600,25.38,40,69,3923,6,0,0
1777327446893,15753,-12311,-2616,-792,774,-454,25.38,40,69,3923,6,0,0
1777327446942,11246,-11991,-3023,-846,1001,-86,25.38,40,69,3923,6,0,0
1777327446942,8072,-10427,-4737,-870,1042,115,25.38,40,69,3923,6,0,0
1777327446992,5899,-10389,-6594,-839,874,152,25.38,40,69,3923,6,0,0
1777327446992,2763,-12632,-8043,-891,546,116,25.38,40,69,3923,6,0,0
1777327446992,-733,-16092,-9288,-1033,259,152,25.38,40,69,3923,6,0,0
1777327447042,-1674,-19241,-10947,-978,-102,296,25.38,40,69,3923,6,0,0
1777327447042,-1562,-22034,-10938,-644,-574,578,25.38,40,69,3923,6,0,0
1777327447092,-1009,-22583,-9375,-181,-929,1064,25.38,40,69,3923,6,0,0
1777327447092,1425,-21065,-9105,275,-1078,1593,25.38,40,69,3923,6,0,0
1777327447142,5188,-18472,-10190,709,-1230,1972,25.38,40,69,3923,6,0,0
1777327447142,10503,-17188,-11939,1101,-1440,2003,25.38,40,69,3923,6,0,0
1777327447175,15450,-19013,-12303,1431,-1719,1803,25.38,40,69,3923,6,0,0
1777327447175,18927,-19649,-11807,1877,-1739,1842,25.38,40,69,3923,6,0,0
1777327447175,22398,-17728,-11857,2454,-1551,1920,25.38,40,69,3923,6,0,0
1777327447208,25035,-14846,-11444,2991,-1401,1662,25.38,40,69,3923,6,0,0
1777327447208,27186,-11264,-10231,3339,-1225,1084,25.38,40,69,3923,6,0,0
1777327447258,31658,-6283,-7830,3596,-1081,440,25.38,40,69,3923,6,0,0
1777327447258,32111,-2171,-3974,3634,-915,-366,25.38,40,69,3923,6,0,0
1777327447325,23841,731,729,3117,-703,-892,25.38,40,69,3923,6,0,0
1777327447325,16631,2802,-660,2069,-207,-1085,25.38,40,69,3923,6,0,0
1777327447375,12605,5080,-4355,1275,-272,-1188,25.38,40,69,3923,6,0,0
1777327447375,12178,7785,-4812,885,-730,-1182,25.38,40,69,3923,6,0,0
1777327447375,12625,9469,-2673,637,-1056,-1232,25.38,40,69,3923,6,0,0
1777327447442,11681,9843,1045,527,-1054,-1230,25.38,40,69,3923,6,0,0
1777327447442,8832,10246,4851,499,-631,-1076,25.38,40,69,3923,6,0,0
1777327447442,8006,11069,5227,227,85,-984,25.38,40,69,3923,6,0,0
1777327447442,9364,11614,2605,-320,627,-1003,25.38,40,69,3923,6,0,0
1777327447475,12371,9994,-908,-980,789,-1196,25.38,40,69,3923,6,0,0
1777327447475,16087,5743,-1857,-1509,678,-1393,25.38,40,69,3923,6,0,0
1777327447509,20587,487,-729,-1805,717,-1321,25.38,40,69,3923,6,0,0
1777327447509,26874,-1317,1682,-2031,978,-935,25.38,40,69,3923,6,0,0
1777327447509,29824,-4094,-9,-2569,1565,-687,25.35,40,69,3928,6,0,0
1777327447560,32122,-7445,-7089,-3057,1943,-927,25.35,40,69,3928,6,0,0
1777327447560,32767,-12448,-13206,-3053,1566,-1371,25.35,40,69,3928,6,0,0
1777327447610,32767,-19288,-10425,-2390,887,-1686,25.35,40,69,3928,6,0,0
1777327447610,28044,-24880,-5499,-1631,801,-1517,25.35,40,69,3928,6,0,0
1777327447675,21605,-27607,-4876,-1278,1038,-1007,25.35,40,69,3928,6,0,0
1777327447675,16795,-27650,-6772,-1374,946,-523,25.35,40,69,3928,6,0,0
1777327447725,9954,-26480,-6266,-1585,483,-23,25.35,40,69,3928,6,0,0
1777327447725,3128,-24123,-4081,-1680,162,470,25.35,40,69,3928,6,0,0
1777327447725,-2338,-21966,-2747,-1529,196,906,25.35,40,69,3928,6,0,0
1777327447758,-5850,-22040,-4639,-1076,387,1121,25.35,40,69,3928,6,0,0
1777327447791,-6372,-23378,-8323,-466,241,1258,25.35,40,69,3928,6,0,0
1777327447791,-5412,-25263,-8589,136,-299,1536,25.35,40,69,3928,6,0,0
1777327447791,-1903,-24984,-6420,594,-731,2077,25.35,40,69,3928,6,0,0
1777327447825,1732,-22804,-4651,938,-806,2667,25.35,40,69,3928,6,0,0
1777327447825,5880,-20353,-6488,1084,-719,3056,25.35,40,69,3928,6,0,0
1777327447892,11765,-18879,-9980,1257,-885,3188,25.35,40,69,3928,6,0,0
1777327447892,17169,-19102,-10714,1560,-1352,3227,25.35,40,69,3928,6,0,0
1777327447892,19897,-18381,-8245,1979,-1602,3510,25.35,40,69,3928,6,0,0
1777327447925,23972,-15031,-8127,2503,-1494,3507,25.35,40,69,3928,6,0,0
1777327447925,27854,-13081,-8153,3017,-1414,2752,25.35,40,69,3928,6,0,0
1777327447958,29781,-11957,-6364,3332,-1431,1754,25.35,40,69,3928,6,0,0
1777327447958,30353,-10517,-4250,3327,-1344,1010,25.35,40,69,3928,6,0,0
1777327448025,25473,-7475,-2518,2529,-1163,186,25.35,40,69,3928,6,0,0
1777327448025,20538,-4701,-3405,1843,-1163,-286,25.35,40,69,3928,6,0,0
1777327448058,15655,-1268,-4085,1358,-1390,-707,25.35,40,69,3928,6,0,0
1777327448058,11891,2356,-3412,1133,-1678,-1042,25.35,40,69,3928,6,0,0
1777327448058,10585,5754,-1194,1040,-1878,-1274,25.35,40,69,3928,6,0,0
1777327448092,11597,8631,1309,896,-1776,-1416,25.35,40,69,3928,6,0,0
1777327448092,10333,8836,2668,714,-1407,-1385,25.35,40,69,3928,6,0,0
1777327448158,7418,8981,3966,563,-909,-1093,25.35,40,69,3928,6,0,0
1777327448158,6222,10332,4645,256,-340,-757,25.35,40,69,3928,6,0,0
1777327448191,7178,11296,4679,-429,229,-659,25.35,40,69,3928,6,0,0
1777327448191,11242,10679,2306,-1247,761,-853,25.35,40,69,3928,6,0,0
1777327448258,16349,6537,-1029,-1842,1039,-1181,25.35,40,69,3928,6,0,0
1777327448258,20187,-82,-2797,-2080,987,-1403,25.35,40,69,3928,6,0,0
1777327448258,23409,-5199,375,-2124,695,-1290,25.35,40,69,3928,6,0,0
1777327448291,24128,-5228,7639,-2258,860,-872,25.35,40,69,3928,6,0,0
1777327448291,30226,-7452,2788,-3001,1793,-1455,25.35,40,69,3928,6,0,0
1777327448325,32767,-15167,-7618,-3541,1883,-2369,25.35,40,69,3928,6,0,0
1777327448376,32717,-23715,-9912,-3156,1011,-2686,25.35,40,69,3928,6,0,0
1777327448458,28957,-30206,-4761,-2416,434,-2374,25.35,40,69,3928,6,0,0
1777327448458,22967,-32768,972,-1772,609,-1684,25.35,40,69,3928,6,0,0
1777327448458,16122,-31846,2411,-1545,1214,-822,25.35,40,69,3928,6,0,0
1777327448508,10843,-26022,-658,-1728,1565,83,25.35,40,69,3928,6,0,0
1777327448508,4371,-19790,-3002,-2055,1403,628,25.35,40,69,3928,6,0,0
1777327448508,1319,-17051,-5569,-2349,1077,644,25.31,40,74,3928,6,0,0
1777327448508,-1568,-18978,-6610,-2324,588,438,25.31,40,74,3928,6,0,0
1777327448508,-4932,-22637,-5402,-1822,263,695,25.31,40,74,3928,6,0,0
1777327448508,-6718,-22734,-4874,-1001,167,1448,25.31,40,74,3928,6,0,0
1777327448575,-5267,-19244,-6682,-310,124,2115,25.31,40,74,3928,6,0,0
1777327448575,-1547,-17133,-9619,-61,-192,2340,25.31,40,74,3928,6,0,0
1777327448608,4603,-17413,-10892,27,-808,2317,25.31,40,74,3928,6,0,0
1777327448608,10104,-19457,-9969,241,-1300,2428,25.31,40,74,3928,6,0,0
1777327448608,14348,-20861,-8973,745,-1566,2822,25.31,40,74,3928,6,0,0
1777327448641,16054,-19239,-8338,1292,-1586,3267,25.31,40,74,3928,6,0,0
1777327448641,22346,-16141,-10249,1742,-1648,3010,25.31,40,74,3928,6,0,0
1777327448708,27547,-15834,-8727,1952,-1958,1966,25.31,40,74,3928,6,0,0
1777327448708,27418,-16399,-5061,2120,-1974,1233,25.31,40,74,3928,6,0,0
1777327448741,27193,-13808,-2535,2255,-1730,803,25.31,40,74,3928,6,0,0
1777327448741,23713,-10078,-1327,2215,-1406,279,25.31,40,74,3928,6,0,0
1777327448842,17897,-6512,-1116,2057,-1171,-280,25.31,40,74,3928,6,0,0
1777327448842,12765,-3334,-1406,1835,-1127,-872,25.31,40,74,3928,6,0,0
1777327448842,9297,-280,-1350,1645,-1237,-1400,25.31,40,74,3928,6,0,0
1777327448842,9406,2525,-919,1466,-1381,-1737,25.31,40,74,3928,6,0,0
1777327448842,10695,2960,-255,1230,-1339,-1797,25.31,40,74,3928,6,0,0
1777327448975,9551,3328,282,1101,-1068,-1441,25.31,40,74,3928,6,0,0
1777327448975,8038,5076,121,1168,-712,-927,25.31,40,74,3928,6,0,0
1777327448975,6552,7149,641,1116,-472,-525,25.31,40,74,3928,6,0,0
1777327448975,6978,8936,2290,626,-266,-431,25.31,40,74,3928,6,0,0
1777327448975,9550,8236,2004,-290,75,-649,25.31,40,74,3928,6,0,0
1777327448975,13676,4168,-987,-1165,320,-939,25.31,40,74,3928,6,0,0
1777327448975,18821,-2345,-3208,-1584,351,-994,25.31,40,74,3928,6,0,0
1777327449008,20871,-7549,-716,-1586,160,-712,25.31,40,74,3928,6,0,0
1777327449175,22556,-6797,7458,-1527,351,-213,25.31,40,74,3928,6,0,0
1777327449175,27506,-7639,4327,-2098,1452,-612,25.31,40,74,3928,6,0,0
1777327449175,32767,-12805,-7051,-2529,1827,-1751,25.31,40,74,3928,6,0,0
1777327449175,32750,-18979,-10298,-2104,1031,-2293,25.31,40,74,3928,6,0,0
1777327449175,31737,-22397,-2950,-1070,142,-2053,25.31,40,74,3928,6,0,0
1777327449175,22542,-23656,6074,-540,257,-1546,25.31,40,74,3928,6,0,0
1777327449175,14513,-21703,1166,-908,1156,-870,25.31,40,74,3928,6,0,0
1777327449175,8072,-20123,-1933,-1288,854,-517,25.31,40,74,3928,6,0,0
1777327449175,3260,-18818,-2942,-1706,390,-264,25.31,40,74,3928,6,0,0
1777327449175,-686,-18760,-2330,-1886,56,-107,25.31,40,74,3928,6,0,0
1777327449241,-3748,-19824,-2055,-1690,33,93,25.31,40,74,3928,6,0,0
1777327449241,-5084,-20779,-3389,-1162,165,411,25.31,40,74,3928,6,0,0
1777327449308,-5549,-20289,-5510,-462,155,827,25.31,40,74,3928,6,0,0
1777327449308,-4620,-19517,-7513,189,-172,1228,25.31,40,74,3928,6,0,0
1777327449308,-3002,-18676,-6510,608,-664,1637,25.31,40,74,3928,6,0,0
1777327449308,1863,-17525,-5210,883,-989,1990,25.31,40,74,3928,6,0,0
1777327449308,7573,-17897,-4641,1233,-1008,2204,25.31,40,74,3928,6,0,0
1777327449375,11921,-19679,-5877,1704,-883,2441,25.31,40,74,3928,6,0,0
1777327449441,13175,-21250,-7115,1977,-929,2815,25.31,40,74,3928,6,0,0
1777327449441,16541,-20319,-7982,2085,-1169,3002,25.31,40,74,3928,6,0,0
1777327449442,21520,-18908,-7320,2073,-1485,2572,25.31,40,74,3928,6,0,0
1777327449442,24744,-17723,-4453,2027,-1589,1789,25.31,40,74,3928,6,0,0
1777327449442,29331,-15134,-3508,2034,-1212,1089,25.31,40,74,3928,6,0,0
1777327449508,31014,-12378,-3774,2115,-778,254,25.31,40,74,3928,6,0,0
1777327449541,25717,-10010,-3674,2061,-588,-426,25.31,40,74,3928,6,0,0
1777327449541,19045,-7003,-3481,1697,-627,-734,25.31,40,74,3928,6,0,0
1777327449541,13462,-3194,-3046,1294,-860,-868,25.28,48,77,3901,6,0,0
1777327449541,10010,338,-2566,1034,-1103,-1009,25.28,48,77,3901,6,0,0
1777327449655,9052,3770,-1041,904,-1328,-1127,25.28,48,77,3901,6,0,0
1777327449824,8547,5985,711,741,-1277,-1189,25.28,48,77,3901,6,0,0
1777327449824,7532,6835,1123,521,-946,-1232,25.28,48,77,3901,6,0,0
1777327449824,6113,6392,1419,408,-569,-1218,25.28,48,77,3901,6,0,0
1777327449824,4247,4815,2183,238,-220,-1077,25.28,48,77,3901,6,0,0
1777327449891,4676,3805,2696,-196,94,-878,25.28,48,77,3901,6,0,0
1777327449958,8054,2377,1809,-808,404,-766,25.28,48,77,3901,6,0,0
1777327449958,12039,-793,-428,-1235,720,-729,25.28,48,77,3901,6,0,0
1777327449958,16427,-4917,-2353,-1204,803,-696,25.28,48,77,3901,6,0,0
1777327449958,20573,-7499,1845,-947,617,-508,25.28,48,77,3901,6,0,0
1777327449958,23214,-8194,6480,-1127,982,-436,25.28,48,77,3901,6,0,0
1777327449958,29852,-9956,1769,-1829,1723,-1095,25.28,48,77,3901,6,0,0
1777327449958,32767,-13475,-6252,-2087,1764,-1721,25.28,48,77,3901,6,0,0
1777327449958,32759,-17543,-7889,-1542,976,-2087,25.28,48,77,3901,6,0,0
1777327449958,30801,-20227,-463,-737,302,-1843,25.28,48,77,3901,6,0,0
1777327449958,22493,-19088,5153,-506,490,-1168,25.28,48,77,3901,6,0,0
1777327449958,16756,-15267,5158,-936,957,-649,25.28,48,77,3901,6,0,0
1777327449958,13000,-12957,1070,-1598,1057,-543,25.28,48,77,3901,6,0,0
1777327449958,8614,-13586,-703,-2066,727,-646,25.28,48,77,3901,6,0,0
1777327449958,4741,-15509,-571,-2224,449,-592,25.28,48,77,3901,6,0,0
1777327449991,709,-16954,139,-2054,325,-272,25.28,48,77,3901,6,0,0
1777327449991,-4045,-17617,547,-1640,278,140,25.28,48,77,3901,6,0,0
1777327450058,-6898,-18248,-915,-1180,231,411,25.28,48,77,3901,6,0,0
1777327450058,-7060,-19517,-2421,-719,-82,560,25.28,48,77,3901,6,0,0
1777327450058,-5300,-21893,-2333,-279,-397,837,25.28,48,77,3901,6,0,0
1777327450091,-1410,-22450,-2605,95,-558,1426,25.28,48,77,3901,6,0,0
1777327450091,4732,-21155,-4178,377,-706,1990,25.28,48,77,3901,6,0,0
1777327450191,9061,-20201,-5166,687,-907,2368,25.28,48,77,3901,6,0,0
1777327450191,13055,-19600,-4640,1031,-1055,2506,25.28,48,77,3901,6,0,0
1777327450191,19139,-19104,-4999,1518,-1021,2219,25.28,48,77,3901,6,0,0
1777327450191,24185,-20987,-4569,2102,-848,1612,25.28,48,77,3901,6,0,0
1777327450357,25755,-21418,-3390,2564,-496,1373,25.28,48,77,3901,6,0,0
1777327450358,28853,-18145,-4560,2722,-159,1348,25.28,48,77,3901,6,0,0
1777327450358,31060,-11004,-4678,2537,-249,716,25.28,48,77,3901,6,0,0
1777327450358,26540,-8579,-2813,2043,-455,33,25.28,48,77,3901,6,0,0
1777327450391,20058,-7042,-2449,1285,-602,-350,25.28,48,77,3901,6,0,0
1777327450391,14851,-5288,-2919,683,-875,-518,25.28,48,77,3901,6,0,0
1777327450391,10358,-2922,-2283,506,-1215,-559,25.28,48,77,3901,6,0,0
1777327450391,7431,284,-864,635,-1410,-578,25.28,48,77,3901,6,0,0
1777327450391,6742,3707,-407,856,-1405,-675,25.28,48,77,3901,6,0,0
1777327450391,6717,6317,699,1039,-1333,-821,25.28,48,77,3901,6,0,0
1777327450391,5499,7062,2369,1134,-1092,-936,25.28,48,77,3901,6,0,0
1777327450391,3980,6876,3546,1045,-655,-927,25.28,48,77,3901,6,0,0
1777327450491,3737,6578,3472,632,-155,-829,25.28,48,77,3901,6,0,0
1777327450591,4624,5687,1948,-113,208,-735,25.28,48,77,3901,6,0,0
1777327450657,6975,4368,-127,-789,323,-612,25.28,48,77,3901,6,0,0
1777327450657,10989,1630,-414,-1157,223,-511,25.28,48,77,3901,6,0,0
1777327450724,16794,-87,2581,-1284,111,-388,25.24,51,79,3901,6,0,0
1777327450724,23068,-375,4877,-1706,510,-506,25.24,51,79,3901,6,0,0
1777327450724,32575,-2766,-56,-2356,1170,-1366,25.24,51,79,3901,6,0,0
1777327450724,32704,-9228,-6014,-2506,1292,-2135,25.24,51,79,3901,6,0,0
1777327450724,32767,-14746,-6509,-1935,892,-2077,25.24,51,79,3901,6,0,0
1777327450724,32767,-15216,-1640,-1347,500,-1553,25.24,51,79,3901,6,0,0
1777327450724,29451,-13896,2094,-1283,541,-1359,25.24,51,79,3901,6,0,0
1777327450724,22992,-14200,3318,-1618,725,-1449,25.24,51,79,3901,6,0,0
1777327450725,16449,-16206,1340,-2148,875,-1357,25.24,51,79,3901,6,0,0
1777327450725,11759,-17352,-1506,-2587,767,-948,25.24,51,79,3901,6,0,0
1777327450725,8428,-18022,-2941,-2861,464,-497,25.24,51,79,3901,6,0,0
1777327450725,5499,-18637,-2458,-2878,202,-118,25.24,51,79,3901,6,0,0
1777327450757,1578,-18491,-1650,-2485,143,259,25.24,51,79,3901,6,0,0
1777327450757,-1706,-17209,-1278,-1789,203,618,25.24,51,79,3901,6,0,0
1777327450857,-3572,-15739,-1717,-1047,295,850,25.24,51,79,3901,6,0,0
1777327450858,-2967,-15076,-3496,-453,220,883,25.24,51,79,3901,6,0,0
1777327450858,-845,-16430,-3838,27,-66,869,25.24,51,79,3901,6,0,0
1777327450891,1739,-18209,-3228,403,-304,1141,25.24,51,79,3901,6,0,0
1777327450891,4839,-18008,-2032,729,-379,1688,25.24,51,79,3901,6,0,0
1777327450891,9397,-16602,-2520,1047,-200,2086,25.24,51,79,3901,6,0,0
1777327450958,17641,-15359,-5516,1215,-161,1959,25.24,51,79,3901,6,0,0
1777327450958,25648,-15141,-5396,1181,-255,1441,25.24,51,79,3901,6,0,0
1777327450958,28054,-16846,-5588,858,-147,965,25.24,51,79,3901,6,0,0
1777327450991,32767,-17522,-8145,607,-83,644,25.24,51,79,3901,6,0,0
1777327450991,32729,-16759,-7780,888,-315,538,25.24,51,79,3901,6,0,0
1777327451091,30678,-13362,-4515,1211,-447,749,25.24,51,79,3901,6,0,0
1777327451091,25567,-8849,-3123,1208,-474,709,25.24,51,79,3901,6,0,0
1777327451091,18393,-6219,-1091,1137,-565,446,25.24,51,79,3901,6,0,0
1777327451091,14200,-3399,115,1182,-573,184,25.24,51,79,3901,6,0,0
1777327451258,11763,-458,831,1281,-589,-47,25.24,51,79,3901,6,0,0
1777327451258,10004,1665,1012,1383,-520,-288,25.24,51,79,3901,6,0,0
1777327451258,8960,3030,403,1507,-441,-405,25.24,51,79,3901,6,0,0
1777327451258,7551,4027,1283,1633,-416,-296,25.24,51,79,3901,6,0,0
1777327451258,5092,4589,3591,1575,-213,68,25.24,51,79,3901,6,0,0
1777327451258,4248,5830,5104,1104,214,548,25.24,51,79,3901,6,0,0
1777327451258,6077,7395,4883,193,752,864,25.24,51,79,3901,6,0,0
1777327451357,9650,8408,2898,-879,1132,838,25.24,51,79,3901,6,0,0
1777327451391,15098,7729,1969,-1766,1236,538,25.24,51,79,3901,6,0,0
1777327451391,22218,4590,699,-2532,1562,24,25.24,51,79,3901,6,0,0
1777327451391,28791,-524,-4750,-2852,1993,-599,25.24,51,79,3901,6,0,0
1777327451391,29794,-4531,-8593,-2544,1661,-730,25.24,51,79,3901,6,0,0
1777327451391,27142,-6205,-4112,-1779,739,-580,25.24,51,79,3901,6,0,0
1777327451391,25547,-5041,7837,-1004,405,-1004,25.24,51,79,3901,6,0,0
1777327451391,21732,-7377,12413,-1220,1083,-1671,25.24,51,79,3901,6,0,0
1777327451391,19893,-10373,7122,-1776,1895,-2059,25.24,51,79,3901,6,0,0
1777327451441,18981,-11454,662,-2257,2016,-2077,25.24,51,79,3901,6,0,0
1777327451541,17642,-13028,-2934,-2691,1738,-2050,25.24,51,79,3901,6,0,0
1777327451541,13090,-15164,-3875,-2956,1386,-1804,25.24,51,79,3901,6,0,0
1777327451541,8009,-15500,-4066,-3079,1118,-1230,25.21,54,82,3876,6,0,0
1777327451541,4166,-13966,-4072,-3149,825,-624,25.21,54,82,3876,6,0,0
1777327451541,971,-12796,-3047,-3161,503,-153,25.21,54,82,3876,6,0,0
1777327451541,-391,-11928,-2104,-3072,214,254,25.21,54,82,3876,6,0,0
1777327451624,867,-10847,-905,-2831,-17,501,25.21,54,82,3876,6,0,0
1777327451625,2893,-11167,634,-2753,-101,463,25.21,54,82,3876,6,0,0
1777327451625,4742,-13698,167,-2794,33,416,25.21,54,82,3876,6,0,0
1777327451757,6736,-16902,-2319,-2723,79,717,25.21,54,82,3876,6,0,0
1777327451757,8199,-19080,-4881,-2415,-95,1273,25.21,54,82,3876,6,0,0
1777327451757,11929,-20151,-5865,-2097,-306,1635,25.21,54,82,3876,6,0,0
1777327451757,20219,-20545,-8472,-1589,-225,1576,25.21,54,82,3876,6,0,0
1777327451857,27752,-20553,-10549,-730,22,1367,25.21,54,82,3876,6,0,0
1777327451857,30516,-21826,-11973,272,248,1166,25.21,54,82,3876,6,0,0
1777327451857,28243,-22326,-10636,960,225,1275,25.21,54,82,3876,6,0,0
1777327451857,26431,-19083,-8906,1055,150,1556,25.21,54,82,3876,6,0,0
1777327451857,24093,-15026,-7186,850,-37,1637,25.21,54,82,3876,6,0,0
1777327451857,20753,-12136,-5123,647,-223,1581,25.21,54,82,3876,6,0,0
1777327451857,17277,-9735,-2697,559,-268,1452,25.21,54,82,3876,6,0,0
1777327451857,14113,-7661,-1145,483,-180,1281,25.21,54,82,3876,6,0,0
1777327451857,11738,-5561,-647,351,-99,1113,25.21,54,82,3876,6,0,0
1777327451924,10045,-3772,-358,173,-128,941,25.21,54,82,3876,6,0,0
1777327451924,9164,-2022,312,0,-248,831,25.21,54,82,3876,6,0,0
1777327451924,7342,-1537,2140,-218,-348,811,25.21,54,82,3876,6,0,0
1777327451975,5984,-1007,3470,-403,-225,870,25.21,54,82,3876,6,0,0
1777327451975,6134,599,3710,-355,34,963,25.21,54,82,3876,6,0,0
1777327451975,6820,2126,3406,-158,282,955,25.21,54,82,3876,6,0,0
1777327452007,8388,2879,3209,35,501,802,25.21,54,82,3876,6,0,0
1777327452057,11019,2708,3382,98,665,606,25.21,54,82,3876,6,0,0
1777327452057,14652,1571,3899,-137,823,473,25.21,54,82,3876,6,0,0
1777327452057,16961,705,6120,-646,1035,570,25.21,54,82,3876,6,0,0
1777327452057,20388,1435,6779,-1505,1591,658,25.21,54,82,3876,6,0,0
1777327452123,24312,1862,3529,-2329,2162,411,25.21,54,82,3876,6,0,0
1777327452123,28073,-24,-622,-2812,2434,-222,25.21,54,82,3876,6,0,0
1777327452157,31764,-5010,-3179,-3015,2391,-1024,25.21,54,82,3876,6,0,0
1777327452157,32767,-10951,-3367,-3045,2296,-1573,25.21,54,82,3876,6,0,0
1777327452190,32121,-15219,-2374,-2877,2275,-1613,25.21,54,82,3876,6,0,0
1777327452257,29245,-16055,-521,-2666,2325,-1318,25.21,54,82,3876,6,0,0
1777327452257,27111,-13592,428,-2680,2526,-1077,25.21,54,82,3876,6,0,0
1777327452257,24302,-10815,-475,-2911,2821,-1138,25.21,54,82,3876,6,0,0
1777327452323,21724,-9505,-3381,-3087,3005,-1281,25.21,54,82,3876,6,0,0
1777327452324,19325,-10048,-4975,-3164,2958,-1303,25.21,54,82,3876,6,0,0
1777327452324,17006,-10699,-6189,-3178,2963,-1044,25.21,54,82,3876,6,0,0
1777327452324,14068,-9908,-7625,-3092,2951,-671,25.21,54,82,3876,6,0,0
1777327452340,11211,-8527,-8813,-3010,2833,-374,25.21,54,82,3876,6,0,0
1777327452375,8932,-7876,-9680,-2963,2597,-249,25.21,54,82,3876,6,0,0
1777327452375,6563,-8159,-9576,-2947,2279,-208,25.21,54,82,3876,6,0,0
1777327452375,4126,-9848,-9337,-2864,2032,-164,25.21,54,82,3876,6,0,0
1777327452457,2389,-12831,-9599,-2644,1810,-27,25.21,54,82,3876,6,0,0
1777327452457,615,-16179,-9451,-2271,1529,211,25.21,54,82,3876,6,0,0
1777327452457,852,-22386,-10107,-1884,975,595,25.21,54,82,3876,6,0,0
1777327452457,2992,-27081,-10534,-1881,520,937,25.21,54,82,3876,6,0,0
1777327452640,6053,-30623,-11111,-1810,90,1391,25.21,54,82,3876,6,0,0
1777327452640,9685,-32130,-11308,-1319,-206,1769,25.21,54,82,3876,6,0,0
1777327452640,13440,-32456,-11839,-538,-303,1941,25.19,56,85,3907,6,0,0
1777327452640,17113,-31401,-12593,314,-322,1942,25.19,56,85,3907,6,0,0
1777327452640,19396,-28837,-12013,1088,-294,1872,25.19,56,85,3907,6,0,0
1777327452640,21101,-24563,-10943,1710,-197,1770,25.19,56,85,3907,6,0,0
1777327452640,21675,-18461,-9663,2147,-126,1571,25.19,56,85,3907,6,0,0
1777327452640,21041,-11983,-7567,2357,-224,1124,25.19,56,85,3907,6,0,0
1777327452690,19087,-7091,-3728,2245,-470,478,25.19,56,85,3907,6,0,0
1777327452707,14987,-4315,661,1909,-525,-90,25.19,56,85,3907,6,0,0
1777327452707,11771,-1962,3325,1594,-242,-376,25.19,56,85,3907,6,0,0
1777327452757,10385,551,2642,1306,101,-570,25.19,56,85,3907,6,0,0
1777327452757,9379,2731,735,973,227,-722,25.19,56,85,3907,6,0,0
1777327452757,9433,4769,-1493,558,100,-772,25.19,56,85,3907,6,0,0
1777327452790,8670,6623,-468,124,-228,-679,25.19,56,85,3907,6,0,0
1777327452790,6995,8054,2552,-381,-261,-504,25.19,56,85,3907,6,0,0
1777327452823,7215,9637,3670,-811,118,-362,25.19,56,85,3907,6,0,0
1777327452823,8792,10867,2224,-1186,624,-361,25.19,56,85,3907,6,0,0
1777327452924,10704,11046,324,-1552,969,-572,25.19,56,85,3907,6,0,0
1777327453023,13187,8522,-1456,-1851,1107,-876,25.19,56,85,3907,6,0,0
1777327453023,15939,5212,-530,-2094,1103,-966,25.19,56,85,3907,6,0,0
1777327453023,18951,1613,-592,-2614,1378,-892,25.19,56,85,3907,6,0,0
1777327453023,23771,-1889,-3348,-3289,1712,-992,25.19,56,85,3907,6,0,0
1777327453023,29212,-5950,-7776,-3661,1829,-1350,25.19,56,85,3907,6,0,0
1777327453023,32767,-11456,-10138,-3567,1647,-1733,25.19,56,85,3907,6,0,0
1777327453023,32506,-17594,-9423,-3171,1422,-1974,25.19,56,85,3907,6,0,0
1777327453023,30428,-22453,-7868,-2765,1430,-1993,25.19,56,85,3907,6,0,0
1777327453073,28218,-24170,-8414,-2358,1543,-1868,25.19,56,85,3907,6,0,0
1777327453073,22865,-24365,-8378,-2020,1484,-1634,25.19,56,85,3907,6,0,0
1777327453106,16591,-24121,-8449,-1964,1304,-1265,25.19,56,85,3907,6,0,0
1777327453106,10521,-23358,-8825,-2131,949,-767,25.19,56,85,3907,6,0,0
1777327453140,4152,-22128,-8273,-2300,564,-218,25.19,56,85,3907,6,0,0
1777327453140,-1661,-20809,-7683,-2265,372,251,25.19,56,85,3907,6,0,0
1777327453140,-5296,-20125,-8868,-1869,278,522,25.19,56,85,3907,6,0,0
1777327453206,-5950,-21110,-10301,-1176,-19,520,25.19,56,85,3907,6,0,0
1777327453206,-5373,-23605,-9555,-333,-511,543,25.19,56,85,3907,6,0,0
1777327453240,-3112,-24551,-7942,457,-869,962,25.19,56,85,3907,6,0,0
1777327453240,1204,-22625,-7313,1078,-1064,1618,25.19,56,85,3907,6,0,0
1777327453273,5662,-19785,-6958,1445,-1178,2095,25.19,56,85,3907,6,0,0
1777327453273,10200,-18272,-7875,1690,-1229,2293,25.19,56,85,3907,6,0,0
1777327453273,14107,-19247,-8084,1912,-1394,2326,25.19,56,85,3907,6,0,0
1777327453340,19025,-20951,-8228,2123,-1368,2437,25.19,56,85,3907,6,0,0
1777327453340,22908,-21618,-8617,2383,-1237,2546,25.19,56,85,3907,6,0,0
1777327453373,26054,-21023,-10195,2650,-974,2567,25.19,56,85,3907,6,0,0
1777327453373,28661,-18163,-11711,2958,-860,2527,25.19,56,85,3907,6,0,0
1777327453406,30530,-13023,-11710,3193,-908,2327,25.19,56,85,3907,6,0,0
1777327453406,32131,-6995,-9672,3324,-913,1799,25.19,56,85,3907,6,0,0
1777327453457,29907,-2052,-7395,3157,-850,811,25.19,56,85,3907,6,0,0
1777327453457,23267,30,-4357,2630,-843,-150,25.19,56,85,3907,6,0,0
1777327453457,15649,-433,-2333,1947,-802,-713,25.19,56,85,3907,6,0,0
1777327453522,10805,614,-1540,1462,-737,-900,25.19,56,85,3907,6,0,0
1777327453522,8979,2848,-1840,1345,-748,-1029,25.19,56,85,3907,6,0,0
1777327453541,8901,5371,-1108,1318,-875,-1135,25.17,58,86,3911,6,0,0
1777327453541,8922,7119,440,1185,-871,-1116,25.17,58,86,3911,6,0,0
1777327453605,8169,8311,2362,654,-599,-706,25.17,58,86,3911,6,0,0
1777327453606,7341,9295,3432,102,-300,-302,25.17,58,86,3911,6,0,0
1777327453739,8178,9966,3637,-682,78,-107,25.17,58,86,3911,6,0,0
1777327453773,10109,8875,2969,-1380,442,-207,25.17,58,86,3911,6,0,0
1777327453773,12737,6103,1093,-1866,867,-517,25.17,58,86,3911,6,0,0
1777327453773,17169,2930,-866,-2149,1062,-762,25.17,58,86,3911,6,0,0
1777327453773,20613,-1721,-1493,-2540,1109,-1017,25.17,58,86,3911,6,0,0
1777327453839,25139,-6999,-2308,-2990,1199,-1373,25.17,58,86,3911,6,0,0
1777327453839,30487,-12303,-3882,-3062,1213,-1689,25.17,58,86,3911,6,0,0
1777327453839,30770,-17634,-2798,-2594,1152,-1753,25.17,58,86,3911,6,0,0
1777327453839,28563,-21028,-1358,-2025,1308,-1676,25.17,58,86,3911,6,0,0
1777327453839,27726,-22107,-1842,-1768,1487,-1766,25.17,58,86,3911,6,0,0
1777327453839,23676,-22603,-2759,-1643,1480,-1873,25.17,58,86,3911,6,0,0
1777327453839,17669,-22461,-1970,-1389,1349,-1666,25.17,58,86,3911,6,0,0
1777327453872,12060,-22597,-1777,-1203,1294,-1124,25.17,58,86,3911,6,0,0
1777327453872,6954,-21164,-3166,-1317,1178,-418,25.17,58,86,3911,6,0,0
1777327453906,2107,-18868,-5152,-1678,850,146,25.17,58,86,3911,6,0,0
1777327453906,-1901,-17325,-6068,-1961,400,397,25.17,58,86,3911,6,0,0
1777327453972,-3956,-17704,-5699,-1872,-18,402,25.17,58,86,3911,6,0,0
1777327453972,-6166,-20058,-4078,-1396,-231,411,25.17,58,86,3911,6,0,0
1777327454005,-7404,-22023,-3940,-639,-163,673,25.17,58,86,3911,6,0,0
1777327454005,-4885,-22330,-5771,177,-141,1170,25.17,58,86,3911,6,0,0
1777327454106,-690,-21144,-7476,766,-371,1726,25.17,58,86,3911,6,0,0
1777327454106,4793,-19596,-8601,1082,-788,2213,25.17,58,86,3911,6,0,0
1777327454106,10364,-18962,-7689,1208,-1298,2587,25.17,58,86,3911,6,0,0
1777327454106,15975,-20104,-5870,1202,-1568,2730,25.17,58,86,3911,6,0,0
1777327454139,21899,-21669,-5887,1395,-1585,2625,25.17,58,86,3911,6,0,0
1777327454139,28119,-24459,-7120,1633,-1484,2141,25.17,58,86,3911,6,0,0
1777327454139,32099,-25854,-6991,2026,-1369,1821,25.17,58,86,3911,6,0,0
1777327454172,32767,-23126,-6969,2514,-1044,1688,25.17,58,86,3911,6,0,0
1777327454172,32767,-17915,-7032,2859,-747,1407,25.17,58,86,3911,6,0,0
1777327454172,31607,-12356,-5689,2877,-679,903,25.17,58,86,3911,6,0,0
1777327454238,23279,-7333,-4072,2379,-809,444,25.17,58,86,3911,6,0,0
1777327454239,15356,-3289,-2736,1573,-1087,162,25.17,58,86,3911,6,0,0
1777327454272,10818,-102,-1586,848,-1324,-82,25.17,58,86,3911,6,0,0
1777327454272,7826,2970,-230,559,-1447,-348,25.17,58,86,3911,6,0,0
1777327454305,7645,6672,109,680,-1336,-640,25.17,58,86,3911,6,0,0
1777327454305,7773,9384,769,958,-1172,-907,25.17,58,86,3911,6,0,0
1777327454372,6451,10556,2654,1068,-858,-980,25.17,58,86,3911,6,0,0
1777327454405,4665,10844,3496,962,-349,-813,25.17,58,86,3911,6,0,0
1777327454406,3831,11165,3060,557,90,-583,25.17,58,86,3911,6,0,0
1777327454406,4894,11241,2659,-90,352,-493,25.17,58,86,3911,6,0,0
1777327454406,8794,9227,1553,-858,542,-651,25.17,58,86,3911,6,0,0
1777327454438,13194,4341,1365,-1411,698,-845,25.17,58,86,3911,6,0,0
1777327454438,17345,-361,3655,-1666,823,-855,25.17,58,86,3911,6,0,0
1777327454505,21509,-2739,5183,-2117,1238,-789,25.17,58,86,3911,6,0,0
1777327454505,26965,-7072,502,-2800,1654,-1295,25.17,58,86,3911,6,0,0
1777327454589,32767,-13064,-5032,-3133,1523,-1963,25.14,60,88,3913,6,0,0
1777327454589,32725,-19594,-5102,-2710,1068,-2265,25.14,60,88,3913,6,0,0
1777327454589,32725,-23447,-2286,-1971,943,-2110,25.14,60,88,3913,6,0,0
1777327454589,28473,-24485,-298,-1384,1060,-1900,25.14,60,88,3913,6,0,0
1777327454589,21647,-23845,769,-1072,1161,-1649,25.14,60,88,3913,6,0,0
1777327454622,15402,-22067,888,-1121,1227,-1279,25.14,60,88,3913,6,0,0
1777327454622,9827,-19717,-1000,-1404,1231,-833,25.14,60,88,3913,6,0,0
1777327454668,5541,-18186,-3763,-1782,972,-433,25.14,60,88,3913,6,0,0
1777327454668,1159,-18012,-4259,-2030,485,-147,25.14,60,88,3913,6,0,0
1777327454738,-5116,-19006,-2693,-1761,36,262,25.14,60,88,3913,6,0,0
1777327454739,-8217,-19172,-1971,-1146,15,512,25.14,60,88,3913,6,0,0
1777327454739,-8401,-19630,-2781,-436,3,721,25.14,60,88,3913,6,0,0
1777327454771,-6676,-20699,-3548,186,-159,966,25.14,60,88,3913,6,0,0
1777327454771,-3185,-21169,-3990,557,-358,1409,25.14,60,88,3913,6,0,0
1777327454805,1710,-21070,-5548,721,-578,1888,25.14,60,88,3913,6,0,0
1777327454805,6937,-21530,-6968,792,-906,2392,25.14,60,88,3913,6,0,0
1777327454872,12440,-22352,-7962,721,-1365,2819,25.14,60,88,3913,6,0,0
1777327454872,17170,-23296,-7175,682,-1793,2966,25.14,60,88,3913,6,0,0
1777327454905,21250,-23050,-6856,1029,-1828,2771,25.14,60,88,3913,6,0,0
1777327454905,26824,-22592,-7608,1763,-1726,2202,25.14,60,88,3913,6,0,0
1777327454905,31723,-20757,-5661,2648,-1549,1613,25.14,60,88,3913,6,0,0
1777327454938,32767,-17118,-3313,3363,-1125,1085,25.14,60,88,3913,6,0,0
1777327454938,31608,-12085,-911,3449,-765,532,25.14,60,88,3913,6,0,0
1777327454989,24793,-7251,-440,2617,-599,-15,25.14,60,88,3913,6,0,0
1777327454989,17329,-3813,-1613,1312,-823,-463,25.14,60,88,3913,6,0,0
1777327455022,12060,-1126,-2293,277,-1248,-762,25.14,60,88,3913,6,0,0
1777327455022,9502,1187,-1721,-4,-1556,-985,25.14,60,88,3913,6,0,0
1777327455088,7683,4148,296,346,-1603,-1159,25.14,60,88,3913,6,0,0
1777327455088,7429,6861,1402,853,-1346,-1254,25.14,60,88,3913,6,0,0
1777327455088,7141,8636,2509,1227,-946,-1168,25.14,60,88,3913,6,0,0
1777327455122,6623,9757,2701,1141,-453,-891,25.14,60,88,3913,6,0,0
1777327455122,6284,10795,2680,541,-125,-674,25.14,60,88,3913,6,0,0
1777327455188,7165,10628,3078,-627,282,-644,25.14,60,88,3913,6,0,0
1777327455188,12589,8509,376,-1799,760,-744,25.14,60,88,3913,6,0,0
1777327455222,18966,2821,-2085,-2257,1065,-864,25.14,60,88,3913,6,0,0
1777327455222,24425,-3144,-1691,-2307,1197,-960,25.14,60,88,3913,6,0,0
1777327455255,28468,-9032,-1707,-2811,1483,-1029,25.14,60,88,3913,6,0,0
1777327455255,32767,-14643,-4383,-3263,1699,-1317,25.14,60,88,3913,6,0,0
1777327455255,32741,-20347,-5178,-2934,1660,-1453,25.14,60,88,3913,6,0,0
1777327455355,32767,-24277,-1397,-2074,1586,-1396,25.14,60,88,3913,6,0,0
1777327455388,29649,-24950,3296,-1685,1811,-1074,25.14,60,88,3913,6,0,0
1777327455388,19990,-22985,4451,-2187,2142,-700,25.14,60,88,3913,6,0,0
1777327455388,13543,-19500,840,-3002,2229,-399,25.14,60,88,3913,6,0,0
1777327455388,7324,-15888,-3137,-3388,2073,-265,25.14,60,88,3913,6,0,0
1777327455388,2803,-14676,-5117,-2926,1810,-187,25.14,60,88,3913,6,0,0
1777327455454,-2695,-14199,-3729,-1841,1614,174,25.14,60,88,3913,6,0,0
1777327455454,-5437,-11939,-2679,-1055,1508,546,25.14,60,88,3913,6,0,0
1777327455454,-7104,-10372,-2336,-970,1348,525,25.14,60,88,3913,6,0,0
1777327455488,-7191,-11385,-4806,-1222,1085,238,25.14,60,88,3913,6,0,0
1777327455488,-6829,-15001,-5875,-1125,517,80,25.14,60,88,3913,6,0,0
1777327455537,-6119,-18577,-4557,-619,-5,324,25.12,62,91,3916,6,0,0
1777327455538,-2821,-19599,-3800,-14,-279,848,25.12,62,91,3916,6,0,0
1777327455571,1243,-19489,-3969,745,-361,1208,25.12,62,91,3916,6,0,0
1777327455571,5276,-20600,-6025,1503,-411,1324,25.12,62,91,3916,6,0,0
1777327455638,12103,-21845,-7103,2122,-747,1274,25.12,62,91,3916,6,0,0
1777327455638,20585,-23205,-6287,2479,-1154,1148,25.12,62,91,3916,6,0,0
1777327455638,24296,-25124,-3545,2271,-1303,1150,25.12,62,91,3916,6,0,0
1777327455671,29195,-24375,-6799,1732,-1175,1195,25.12,62,91,3916,6,0,0
1777327455704,32767,-22092,-9400,1649,-1404,846,25.12,62,91,3916,6,0,0
1777327455704,32752,-20965,-7274,2050,-1824,358,25.12,62,91,3916,6,0,0
1777327455704,30160,-18817,-3076,2382,-1821,157,25.12,62,91,3916,6,0,0
1777327455804,23328,-14606,-1152,2268,-1593,285,25.12,62,91,3916,6,0,0
1777327455804,16908,-9961,-871,1776,-1505,463,25.12,62,91,3916,6,0,0
1777327455804,11845,-4903,-758,1359,-1591,611,25.12,62,91,3916,6,0,0
1777327455804,8482,3227,145,1317,-1588,629,25.12,62,91,3916,6,0,0
1777327455804,7088,6982,11,1388,-1395,527,25.12,62,91,3916,6,0,0
1777327455837,5550,8900,229,1327,-1215,466,25.12,62,91,3916,6,0,0
1777327455838,4785,10158,1497,1064,-1062,551,25.12,62,91,3916,6,0,0
1777327455904,4689,10654,3723,665,-799,669,25.12,62,91,3916,6,0,0
1777327455904,7116,11255,4875,50,-303,692,25.12,62,91,3916,6,0,0
1777327455938,10427,10596,3088,-711,299,449,25.12,62,91,3916,6,0,0
1777327455938,14750,6489,-198,-1245,618,-1,25.12,62,91,3916,6,0,0
1777327456038,17761,1503,885,-1410,483,-246,25.12,62,91,3916,6,0,0
1777327456071,21525,-2224,3623,-1826,684,-343,25.12,62,91,3916,6,0,0
1777327456071,27277,-6215,-311,-2341,1131,-800,25.12,62,91,3916,6,0,0
1777327456071,29211,-11231,-4380,-2368,1122,-1267,25.12,62,91,3916,6,0,0
1777327456071,28771,-15195,-4158,-1822,665,-1586,25.12,62,91,3916,6,0,0
1777327456071,28027,-16638,595,-1194,326,-2003,25.12,62,91,3916,6,0,0
1777327456071,26789,-19059,4700,-1004,527,-2616,25.12,62,91,3916,6,0,0
1777327456105,22655,-23541,4944,-1125,1099,-2828,25.12,62,91,3916,6,0,0
1777327456105,16056,-25077,3140,-1304,1498,-2078,25.12,62,91,3916,6,0,0
1777327456171,9808,-22090,301,-1671,1468,-926,25.12,62,91,3916,6,0,0
1777327456171,3246,-17908,-1773,-2182,1096,-81,25.12,62,91,3916,6,0,0
1777327456171,-737,-15166,-3400,-2586,582,187,25.12,62,91,3916,6,0,0
1777327456204,-3241,-15281,-3601,-2560,155,20,25.12,62,91,3916,6,0,0
1777327456204,-5288,-17672,-3007,-1951,-4,-122,25.12,62,91,3916,6,0,0
1777327456238,-5700,-19976,-3714,-1037,82,81,25.12,62,91,3916,6,0,0
1777327456238,-4544,-20746,-6204,-190,125,490,25.12,62,91,3916,6,0,0
1777327456305,-2160,-20679,-8692,442,-174,908,25.12,62,91,3916,6,0,0
1777327456339,1084,-20259,-9230,866,-678,1325,25.12,62,91,3916,6,0,0
1777327456339,5440,-19820,-8517,1195,-1090,1770,25.12,62,91,3916,6,0,0
1777327456339,8989,-20640,-8085,1433,-1370,2087,25.12,62,91,3916,6,0,0
1777327456339,12749,-22063,-6706,1656,-1541,2281,25.12,62,91,3916,6,0,0
1777327456371,20419,-21104,-7564,2084,-1371,2173,25.12,62,91,3916,6,0,0
1777327456371,27220,-21953,-9379,2459,-1222,1577,25.12,62,91,3916,6,0,0
1777327456438,28945,-22553,-8318,2637,-1156,1221,25.12,62,91,3916,6,0,0
1777327456438,31291,-20205,-7766,2523,-981,1002,25.12,62,91,3916,6,0,0
1777327456471,31897,-16922,-6894,2332,-884,639,25.12,62,91,3916,6,0,0
1777327456471,27280,-13635,-5107,1999,-775,226,25.12,62,91,3916,6,0,0
1777327456538,21214,-10681,-4922,1556,-771,-89,25.12,62,91,3916,6,0,0
1777327456538,14601,-7318,-3842,1225,-981,-181,25.12,62,91,3916,6,0,0
1777327456538,10288,-2729,-2169,1063,-1223,-211,25.1,65,94,3916,6,0,0
1777327456556,8141,2430,-133,1013,-1316,-340,25.1,65,94,3916,6,0,0
1777327456654,7380,7158,1329,974,-1149,-541,25.1,65,94,3916,6,0,0
1777327456654,6450,10213,1728,915,-806,-703,25.1,65,94,3916,6,0,0
1777327456654,4688,11279,1874,756,-420,-755,25.1,65,94,3916,6,0,0
1777327456654,3297,11669,2140,419,-125,-654,25.1,65,94,3916,6,0,0
1777327456704,3891,12108,1949,-88,185,-556,25.1,65,94,3916,6,0,0
1777327456704,6127,11780,1181,-650,447,-584,25.1,65,94,3916,6,0,0
1777327456704,10154,9329,-177,-1102,656,-755,25.1,65,94,3916,6,0,0
1777327456704,14924,4092,-655,-1255,746,-931,25.1,65,94,3916,6,0,0
1777327456737,20428,-1249,1540,-1328,736,-1007,25.1,65,94,3916,6,0,0
1777327456737,27481,-5690,2114,-1911,1071,-1129,25.1,65,94,3916,6,0,0
1777327456804,32767,-11405,-2892,-2718,1459,-1655,25.1,65,94,3916,6,0,0
1777327456804,32735,-16968,-7477,-2894,1377,-1842,25.1,65,94,3916,6,0,0
1777327456837,32767,-20423,-8250,-2360,900,-1900,25.1,65,94,3916,6,0,0
1777327456838,32525,-23498,-3261,-1743,443,-1945,25.1,65,94,3916,6,0,0
1777327456871,24806,-25564,2210,-1496,560,-1693,25.1,65,94,3916,6,0,0
1777327456871,16563,-24687,2618,-1611,976,-1021,25.1,65,94,3916,6,0,0
1777327456871,9979,-20893,412,-1846,1116,-363,25.1,65,94,3916,6,0,0
1777327456937,1749,-16087,-2314,-2055,804,40,25.1,65,94,3916,6,0,0
1777327456937,-1921,-15532,-3362,-2033,403,-4,25.1,65,94,3916,6,0,0
1777327456971,-4691,-16655,-3194,-1788,13,-34,25.1,65,94,3916,6,0,0
1777327456971,-6075,-17958,-2309,-1189,-214,55,25.1,65,94,3916,6,0,0
1777327457054,-6466,-18488,-2162,-311,-229,300,25.1,65,94,3916,6,0,0
1777327457054,-6094,-18293,-3227,581,-224,638,25.1,65,94,3916,6,0,0
1777327457054,-3438,-18000,-5207,1139,-350,956,25.1,65,94,3916,6,0,0
1777327457054,276,-18156,-7380,1429,-662,1316,25.1,65,94,3916,6,0,0
1777327457054,4593,-17972,-8148,1663,-1047,1758,25.1,65,94,3916,6,0,0
1777327457121,8803,-18689,-8442,1890,-1349,2102,25.1,65,94,3916,6,0,0
1777327457121,12327,-22229,-8512,2001,-1565,2217,25.1,65,94,3916,6,0,0
1777327457154,18087,-24828,-9067,2069,-1599,2047,25.1,65,94,3916,6,0,0
1777327457154,26627,-27020,-11361,2150,-1599,1663,25.1,65,94,3916,6,0,0
1777327457204,32358,-27576,-9986,2430,-1507,1327,25.1,65,94,3916,6,0,0
1777327457204,32750,-26641,-8970,2922,-976,1081,25.1,65,94,3916,6,0,0
1777327457254,32767,-22634,-8726,3143,-445,987,25.1,65,94,3916,6,0,0
1777327457254,30784,-16059,-8432,2787,-389,1051,25.1,65,94,3916,6,0,0
1777327457287,24171,-8827,-7783,1936,-711,1002,25.1,65,94,3916,6,0,0
1777327457287,16050,-3333,-5876,979,-1190,834,25.1,65,94,3916,6,0,0
1777327457287,9432,1071,-4006,374,-1544,613,25.1,65,94,3916,6,0,0
1777327457320,6741,6290,-2509,396,-1717,362,25.1,65,94,3916,6,0,0
1777327457320,5707,11506,-848,841,-1732,46,25.1,65,94,3916,6,0,0
1777327457420,4239,14581,1143,1196,-1538,-294,25.1,65,94,3916,6,0,0
1777327457420,2407,14899,3110,1158,-1085,-633,25.1,65,94,3916,6,0,0
1777327457420,810,13313,2489,802,-519,-903,25.1,65,94,3916,6,0,0
1777327457420,2527,11267,611,389,-222,-1091,25.1,65,94,3916,6,0,0
1777327457420,5660,8395,1083,71,-214,-1174,25.1,65,94,3916,6,0,0
1777327457454,9833,5256,2821,-294,-54,-1166,25.1,65,94,3916,6,0,0
1777327457454,15322,1517,2787,-548,325,-1135,25.1,65,94,3916,6,0,0
1777327457520,19448,-2664,3811,-511,579,-1075,25.1,65,94,3916,6,0,0
1777327457553,24782,-3379,6437,-697,875,-904,25.1,67,96,3916,6,0,0
1777327457553,32697,-4438,3740,-1645,1429,-1253,25.1,67,96,3916,6,0,0
1777327457553,32711,-10262,-3497,-2644,1803,-2152,25.1,67,96,3916,6,0,0
1777327457587,32767,-16831,-9048,-2908,1551,-2429,25.1,67,96,3916,6,0,0
1777327457587,32766,-19260,-8255,-2247,893,-2025,25.1,67,96,3916,6,0,0
1777327457587,30175,-17498,-2375,-1438,557,-1676,25.1,67,96,3916,6,0,0
1777327457687,24405,-16204,2183,-1324,870,-1682,25.1,67,96,3916,6,0,0
1777327457687,19719,-16238,923,-1783,1417,-1739,25.1,67,96,3916,6,0,0
1777327457687,15549,-16642,-4047,-2355,1555,-1577,25.1,67,96,3916,6,0,0
1777327457687,11273,-17675,-7113,-2725,1183,-1252,25.1,67,96,3916,6,0,0
1777327457753,6485,-18720,-6868,-2758,703,-803,25.1,67,96,3916,6,0,0
1777327457753,2604,-18712,-5675,-2511,355,-342,25.1,67,96,3916,6,0,0
1777327457786,-644,-18710,-4218,-2160,157,-84,25.1,67,96,3916,6,0,0
1777327457786,-3007,-19358,-3804,-1655,106,70,25.1,67,96,3916,6,0,0
1777327457786,-3718,-20234,-4421,-1027,46,273,25.1,67,96,3916,6,0,0
1777327457820,-3571,-20813,-5192,-395,-95,633,25.1,67,96,3916,6,0,0
1777327457820,-1288,-20052,-6164,133,-324,1140,25.1,67,96,3916,6,0,0
1777327457886,2239,-18497,-7186,549,-639,1592,25.1,67,96,3916,6,0,0
1777327457887,7137,-17645,-7753,821,-999,1897,25.1,67,96,3916,6,0,0
1777327457920,10465,-18793,-7158,1011,-1378,2127,25.1,67,96,3916,6,0,0
1777327457920,18102,-18653,-7392,1262,-1446,2205,25.1,67,96,3916,6,0,0
1777327457953,28329,-17565,-7258,1811,-1287,1916,25.1,67,96,3916,6,0,0
1777327457953,32767,-16436,-6532,2451,-803,1529,25.1,67,96,3916,6,0,0
1777327457953,32743,-16477,-6150,2671,-261,1050,25.1,67,96,3916,6,0,0
1777327458020,32767,-15784,-7867,2540,78,660,25.1,67,96,3916,6,0,0
1777327458020,32702,-13393,-7849,2282,-6,451,25.1,67,96,3916,6,0,0
1777327458053,25709,-7269,-6130,1553,-495,294,25.1,67,96,3916,6,0,0
1777327458053,19687,-5221,-3583,1111,-912,195,25.1,67,96,3916,6,0,0
1777327458086,14644,-3153,-1267,861,-1107,209,25.1,67,96,3916,6,0,0
1777327458086,11324,-596,176,808,-1165,179,25.1,67,96,3916,6,0,0
1777327458153,9505,2144,1146,974,-1096,8,25.1,67,96,3916,6,0,0
1777327458153,7597,4422,2371,1146,-937,-147,25.1,67,96,3916,6,0,0
1777327458153,4917,6034,4021,1124,-604,-132,25.1,67,96,3916,6,0,0
1777327458219,3054,7551,4220,867,-119,20,25.1,67,96,3916,6,0,0
1777327458219,2479,9042,3489,467,325,211,25.1,67,96,3916,6,0,0
1777327458220,3200,10199,2567,-70,598,303,25.1,67,96,3916,6,0,0
1777327458220,5028,10701,2002,-678,761,225,25.1,67,96,3916,6,0,0
1777327458286,8213,9420,2011,-1124,905,13,25.1,67,96,3916,6,0,0
1777327458286,11528,7295,3684,-1376,1099,-157,25.1,67,96,3916,6,0,0
1777327458319,17722,5931,3305,-1889,1547,-297,25.1,67,96,3916,6,0,0
1777327458319,27297,3079,-2674,-2605,2079,-907,25.1,67,96,3916,6,0,0
1777327458319,32767,-2352,-10143,-2774,1989,-1776,25.1,67,96,3916,6,0,0
1777327458386,32742,-8599,-9162,-2226,1047,-2034,25.1,67,96,3916,6,0,0
1777327458386,31182,-11227,116,-1495,431,-1635,25.1,67,96,3916,6,0,0
1777327458420,29770,-9379,6268,-1293,782,-1441,25.1,67,96,3916,6,0,0
1777327458453,25357,-8083,7326,-1733,1551,-1603,25.1,67,96,3916,6,0,0
1777327458453,22229,-8863,1123,-2588,2093,-1817,25.1,67,96,3916,6,0,0
1777327458453,19914,-10302,-4626,-3393,1898,-1770,25.1,67,96,3916,6,0,0
1777327458503,16932,-11287,-6452,-4132,1411,-1542,25.1,67,96,3916,6,0,0
1777327458503,13602,-12537,-6608,-4567,1057,-1192,25.1,67,96,3916,6,0,0
1777327458503,10231,-13230,-5848,-4591,865,-641,25.08,70,99,3900,6,0,0
1777327458586,6922,-12598,-4565,-4304,775,1,25.08,70,99,3900,6,0,0
1777327458653,4619,-11088,-3074,-3913,745,562,25.08,70,99,3900,6,0,0
1777327458653,3413,-9530,-1932,-3611,792,896,25.08,70,99,3900,6,0,0
1777327458653,3411,-8753,-2568,-3362,855,935,25.08,70,99,3900,6,0,0
1777327458653,4031,-9730,-3212,-3080,840,896,25.08,70,99,3900,6,0,0
1777327458653,5812,-12165,-4446,-2797,764,1025,25.08,70,99,3900,6,0,0
1777327458686,7938,-14421,-4971,-2664,595,1370,25.08,70,99,3900,6,0,0
1777327458686,10702,-15999,-5418,-2606,441,1712,25.08,70,99,3900,6,0,0
1777327458686,19776,-16873,-8622,-2408,428,1687,25.08,70,99,3900,6,0,0
1777327458719,27487,-17963,-9916,-1820,309,1397,25.08,70,99,3900,6,0,0
1777327458719,28995,-20547,-9059,-1258,376,1249,25.08,70,99,3900,6,0,0
1777327458786,29202,-22678,-9906,-950,514,1248,25.08,70,99,3900,6,0,0
1777327458786,28083,-22891,-10477,-705,356,1436,25.08,70,99,3900,6,0,0
1777327458819,25408,-20727,-9134,-277,75,1695,25.08,70,99,3900,6,0,0
1777327458819,21920,-17193,-6914,117,-162,1817,25.08,70,99,3900,6,0,0
1777327458853,18732,-13800,-4305,324,-319,1744,25.08,70,99,3900,6,0,0
1777327458920,15811,-10917,-1764,399,-414,1594,25.08,70,99,3900,6,0,0
1777327458920,12941,-8669,638,404,-418,1450,25.08,70,99,3900,6,0,0
1777327458920,10197,-6786,2380,370,-309,1385,25.08,70,99,3900,6,0,0
1777327458920,7897,-4873,3390,364,-136,1405,25.08,70,99,3900,6,0,0
1777327458952,6131,-2459,4463,410,16,1446,25.08,70,99,3900,6,0,0
1777327458952,5107,370,5649,428,221,1464,25.08,70,99,3900,6,0,0
1777327459003,4144,2986,5980,408,510,1363,25.08,70,99,3900,6,0,0
1777327459003,4598,5110,5421,445,747,1117,25.08,70,99,3900,6,0,0
1777327459036,5770,6229,5114,527,902,715,25.08,70,99,3900,6,0,0
1777327459036,7719,5951,6113,507,999,287,25.08,70,99,3900,6,0,0
1777327459036,10141,4675,7462,320,1246,-28,25.08,70,99,3900,6,0,0
1777327459103,15126,4592,7550,70,1644,-205,25.08,70,99,3900,6,0,0
1777327459135,19914,3821,6924,-412,2080,-572,25.08,70,99,3900,6,0,0
1777327459135,24945,1918,4123,-1063,2487,-1159,25.08,70,99,3900,6,0,0
1777327459169,27853,-1395,591,-1586,2523,-1836,25.08,70,99,3900,6,0,0
1777327459169,30913,-6995,-315,-2091,2019,-2801,25.08,70,99,3900,6,0,0
1777327459169,29998,-11231,1488,-2246,1778,-3239,25.08,70,99,3900,6,0,0
1777327459236,26337,-14720,3681,-2381,1783,-3132,25.08,70,99,3900,6,0,0
1777327459236,22224,-14834,4196,-2655,1993,-2529,25.08,70,99,3900,6,0,0
1777327459236,20217,-11430,1683,-3128,2117,-1918,25.08,70,99,3900,6,0,0
1777327459269,18363,-9030,-896,-3661,2015,-1747,25.08,70,99,3900,6,0,0
1777327459269,16900,-8936,-3255,-4107,1791,-1904,25.08,70,99,3900,6,0,0
1777327459302,14655,-11271,-3820,-4196,1600,-1979,25.08,70,99,3900,6,0,0
1777327459302,12498,-13043,-3668,-3892,1707,-1706,25.08,70,99,3900,6,0,0
1777327459369,11493,-13159,-5344,-3303,1921,-1352,25.08,70,99,3900,6,0,0
1777327459369,11319,-13357,-7781,-2683,1938,-1169,25.08,70,99,3900,6,0,0
1777327459402,9814,-15280,-8269,-2210,1665,-1054,25.08,70,99,3900,6,0,0
1777327459402,9051,-17126,-7768,-2019,1357,-788,25.08,70,99,3900,6,0,0
1777327459402,9096,-18857,-6894,-1949,1018,-411,25.08,70,99,3900,6,0,0
1777327459436,8243,-20081,-4997,-1802,715,114,25.08,70,99,3900,6,0,0
1777327459436,7950,-20163,-3396,-1646,518,686,25.08,70,99,3900,6,0,0
1777327459502,9457,-20630,-3597,-1563,360,1023,25.08,70,99,3900,6,0,0
1777327459502,12131,-23045,-4230,-1387,76,1200,25.08,70,99,3900,6,0,0
1777327459552,15308,-25246,-4022,-1100,-224,1419,25.08,72,102,3905,6,0,0
1777327459552,19111,-26311,-3404,-697,-360,1608,25.08,72,102,3905,6,0,0
1777327459585,22586,-26355,-3543,-87,-232,1710,25.08,72,102,3905,6,0,0
1777327459585,24964,-25652,-3911,574,-7,1786,25.08,72,102,3905,6,0,0
1777327459585,27388,-23960,-5778,1132,244,1811,25.08,72,102,3905,6,0,0
1777327459618,28882,-21618,-6821,1510,247,1790,25.08,72,102,3905,6,0,0
1777327459701,28470,-18178,-5963,1732,125,1774,25.08,72,102,3905,6,0,0
1777327459701,25763,-13896,-4209,1763,8,1739,25.08,72,102,3905,6,0,0
1777327459701,20259,-9172,-2129,1531,-115,1768,25.08,72,102,3905,6,0,0
1777327459701,14165,-3973,-700,1032,-194,1968,25.08,72,102,3905,6,0,0
1777327459701,8775,1219,-938,446,-326,2113,25.08,72,102,3905,6,0,0
1777327459767,4852,6242,-916,24,-646,2005,25.08,72,102,3905,6,0,0
1777327459767,4210,10887,799,-190,-1033,1501,25.08,72,102,3905,6,0,0
1777327459767,4053,13157,3700,-316,-1141,690,25.08,72,102,3905,6,0,0
1777327459801,5454,13380,5604,-312,-804,-45,25.08,72,102,3905,6,0,0
1777327459801,7595,12501,6066,-161,-219,-596,25.08,72,102,3905,6,0,0
1777327459868,8851,10644,5810,-36,362,-983,25.08,72,102,3905,6,0,0
1777327459868,9981,8722,5241,-177,815,-1169,25.08,72,102,3905,6,0,0
1777327459934,11397,6752,4266,-644,1140,-1257,25.08,72,102,3905,6,0,0
1777327459934,13213,4573,3388,-1247,1329,-1246,25.08,72,102,3905,6,0,0
1777327459934,16155,2410,2830,-1767,1457,-1160,25.08,72,102,3905,6,0,0
1777327459934,20083,-616,1834,-2160,1640,-1256,25.08,72,102,3905,6,0,0
1777327459934,24923,-4326,-745,-2422,1774,-1702,25.08,72,102,3905,6,0,0
1777327460001,28852,-10260,-2691,-2504,1776,-2487,25.08,72,102,3905,6,0,0
1777327460001,30623,-17916,-4249,-2356,1789,-3101,25.08,72,102,3905,6,0,0
1777327460034,29822,-24687,-6087,-2051,1707,-3042,25.08,72,102,3905,6,0,0
1777327460034,28731,-28321,-6951,-1774,1325,-2553,25.08,72,102,3905,6,0,0
1777327460084,24259,-29009,-4416,-1628,880,-1876,25.08,72,102,3905,6,0,0
1777327460084,18257,-26803,-1062,-1712,744,-1092,25.08,72,102,3905,6,0,0
1777327460134,13116,-23305,-797,-2065,848,-365,25.08,72,102,3905,6,0,0
1777327460134,8891,-20597,-2946,-2475,804,108,25.08,72,102,3905,6,0,0
1777327460134,4562,-20177,-4815,-2660,556,354,25.08,72,102,3905,6,0,0
1777327460167,694,-20259,-4873,-2331,252,554,25.08,72,102,3905,6,0,0
1777327460167,-1014,-19382,-4217,-1655,87,770,25.08,72,102,3905,6,0,0
1777327460200,-1145,-18385,-3630,-944,31,962,25.08,72,102,3905,6,0,0
1777327460200,-224,-17139,-3787,-401,-16,1183,25.08,72,102,3905,6,0,0
1777327460267,1823,-15683,-3971,-7,-243,1459,25.08,72,102,3905,6,0,0
1777327460267,4236,-14516,-3166,296,-543,1774,25.08,72,102,3905,6,0,0
1777327460301,8599,-13363,-1758,822,-696,2284,25.08,72,102,3905,6,0,0
1777327460301,12266,-14620,-2139,1045,-753,2339,25.08,72,102,3905,6,0,0
1777327460301,14574,-17700,-1915,1213,-857,2176,25.08,72,102,3905,6,0,0
1777327460334,19968,-21386,-2787,1322,-960,1779,25.08,72,102,3905,6,0,0
1777327460334,24605,-24561,-1886,1377,-1050,1389,25.08,72,102,3905,6,0,0
1777327460401,28037,-25108,-1138,1471,-877,1433,25.08,72,102,3905,6,0,0
1777327460401,27492,-23393,-621,1635,-646,1630,25.08,72,102,3905,6,0,0
1777327460434,25776,-18448,83,1582,-491,1597,25.08,72,102,3905,6,0,0
1777327460434,20552,-13651,1210,1260,-409,1330,25.08,72,102,3905,6,0,0
1777327460467,15160,-8788,1031,746,-388,1077,25.08,72,102,3905,6,0,0
1777327460467,11204,-4155,-283,231,-502,721,25.08,72,102,3905,6,0,0
1777327460467,9180,-564,-176,-56,-833,271,25.08,72,102,3905,6,0,0
1777327460534,8825,2344,1462,-132,-1085,-171,25.07,75,104,3907,6,0,0
1777327460534,11215,3952,2298,-149,-934,-459,25.07,75,104,3907,6,0,0
1777327460584,12355,4841,2776,-35,-557,-374,25.07,75,104,3907,6,0,0
1777327460584,13854,6453,2970,-113,-16,38,25.07,75,104,3907,6,0,0
1777327460617,15029,7396,2106,-534,510,421,25.07,75,104,3907,6,0,0
1777327460651,15693,7255,462,-1127,880,712,25.07,75,104,3907,6,0,0
1777327460751,16480,5207,-1046,-1427,973,804,25.07,75,104,3907,6,0,0
1777327460751,17021,1385,-626,-1245,895,714,25.07,75,104,3907,6,0,0
1777327460751,15865,-1867,3976,-785,838,535,25.07,75,104,3907,6,0,0
1777327460751,13078,-4430,8007,-879,1423,393,25.07,75,104,3907,6,0,0
1777327460751,15438,-6375,2630,-1422,2189,-70,25.07,75,104,3907,6,0,0
1777327460751,21303,-10219,-4727,-1777,2188,-1020,25.07,75,104,3907,6,0,0
1777327460751,23926,-17263,-7118,-1774,1660,-1984,25.07,75,104,3907,6,0,0
1777327460783,23630,-23643,-4170,-1504,1216,-2328,25.07,75,104,3907,6,0,0
1777327460784,20836,-25656,-417,-1059,1341,-2097,25.07,75,104,3907,6,0,0
1777327460850,17736,-23172,1422,-772,1836,-1775,25.07,75,104,3907,6,0,0
1777327460850,15453,-19505,-326,-821,2220,-1742,25.07,75,104,3907,6,0,0
1777327460850,11734,-17104,-2181,-1060,2236,-1781,25.07,75,104,3907,6,0,0
1777327460884,8393,-15297,-3579,-1282,2023,-1640,25.07,75,104,3907,6,0,0
1777327460884,4285,-15033,-4925,-1455,1696,-1319,25.07,75,104,3907,6,0,0
1777327460917,-389,-14508,-5980,-1491,1321,-802,25.07,75,104,3907,6,0,0
1777327460917,-3077,-13883,-7644,-1495,835,-363,25.07,75,104,3907,6,0,0
1777327460984,-5680,-14604,-8459,-1517,215,-240,25.07,75,104,3907,6,0,0
1777327460984,-7805,-17233,-7380,-1115,-258,-270,25.07,75,104,3907,6,0,0
1777327461052,-8585,-20065,-6367,-243,-384,-30,25.07,75,104,3907,6,0,0
1777327461151,-5577,-21472,-7841,690,-369,394,25.07,75,104,3907,6,0,0
1777327461217,-1099,-22054,-9675,1370,-529,792,25.07,75,104,3907,6,0,0
1777327461218,5452,-22944,-11422,1625,-924,1030,25.07,75,104,3907,6,0,0
1777327461218,12093,-24480,-10043,1741,-1398,1116,25.07,75,104,3907,6,0,0
1777327461218,18494,-26785,-8420,1778,-1469,1070,25.07,75,104,3907,6,0,0
1777327461218,23298,-27657,-7782,2048,-1180,1214,25.07,75,104,3907,6,0,0
1777327461218,27228,-24691,-9863,2436,-792,1491,25.07,75,104,3907,6,0,0
1777327461251,30462,-19555,-11078,2630,-813,1376,25.07,75,104,3907,6,0,0
1777327461251,31101,-14744,-9636,2630,-1088,953,25.07,75,104,3907,6,0,0
1777327461251,26993,-11246,-5125,2292,-1329,460,25.07,75,104,3907,6,0,0
1777327461251,21269,-8004,-1961,1583,-1267,140,25.07,75,104,3907,6,0,0
1777327461251,16091,-4321,-1831,796,-1093,-80,25.07,75,104,3907,6,0,0
1777327461251,12115,-829,-2529,445,-1086,-355,25.07,75,104,3907,6,0,0
1777327461301,9538,2210,-1939,647,-1194,-649,25.07,75,104,3907,6,0,0
1777327461301,8888,4789,-303,988,-1210,-868,25.07,75,104,3907,6,0,0
1777327461334,8287,6998,1741,1171,-994,-890,25.07,75,104,3907,6,0,0
1777327461334,7836,8768,2353,1188,-611,-778,25.07,75,104,3907,6,0,0
1777327461367,7236,9654,2751,962,-302,-602,25.07,75,104,3907,6,0,0
1777327461367,6328,9991,3015,445,-24,-453,25.07,75,104,3907,6,0,0
1777327461367,7956,9799,1883,-633,294,-427,25.07,75,104,3907,6,0,0
1777327461434,11537,7205,162,-1115,411,-598,25.07,75,104,3907,6,0,0
1777327461467,16730,3075,209,-1253,344,-757,25.07,75,104,3907,6,0,0
1777327461467,23143,170,1915,-1496,537,-843,25.07,75,104,3907,6,0,0
1777327461467,30429,-5080,-480,-1940,1023,-1395,25.07,75,104,3907,6,0,0
1777327461534,32767,-11934,-4469,-2043,1345,-2000,25.07,75,104,3907,6,0,0
1777327461567,32762,-18060,-6153,-1589,1244,-2062,25.07,77,107,3910,6,0,0
1777327461567,32050,-20712,-3660,-1141,948,-1751,25.07,77,107,3910,6,0,0
1777327461567,28223,-20422,-2076,-1336,783,-1562,25.07,77,107,3910,6,0,0
1777327461617,23439,-20294,-1695,-1925,548,-1525,25.07,77,107,3910,6,0,0
1777327461617,18135,-20847,-447,-2363,332,-1325,25.07,77,107,3910,6,0,0
1777327461617,12716,-20738,197,-2512,379,-834,25.07,77,107,3910,6,0,0
1777327461650,7651,-19340,-1660,-2321,586,-218,25.07,77,107,3910,6,0,0
1777327461650,2401,-17332,-3779,-1942,602,229,25.07,77,107,3910,6,0,0
1777327461684,-2610,-16110,-5107,-1566,374,376,25.07,77,107,3910,6,0,0
1777327461684,-5520,-16030,-5352,-1193,40,268,25.07,77,107,3910,6,0,0
1777327461750,-6622,-17706,-5482,-726,-244,105,25.07,77,107,3910,6,0,0
1777327461784,-5768,-20154,-5503,-80,-461,187,25.07,77,107,3910,6,0,0
1777327461784,-3787,-21538,-5465,638,-613,623,25.07,77,107,3910,6,0,0
1777327461817,218,-20744,-6604,1232,-753,1293,25.07,77,107,3910,6,0,0
1777327461817,4796,-18490,-7595,1582,-1001,1869,25.07,77,107,3910,6,0,0
1777327461817,9458,-17201,-8036,1669,-1311,2207,25.07,77,107,3910,6,0,0
1777327461817,13806,-18600,-7753,1592,-1614,2329,25.07,77,107,3910,6,0,0
1777327461884,21205,-20106,-8516,1530,-1730,2308,25.07,77,107,3910,6,0,0
1777327461884,29328,-21037,-9585,1694,-1675,2022,25.07,77,107,3910,6,0,0
1777327461917,32670,-20488,-8935,2182,-1451,1810,25.07,77,107,3910,6,0,0
1777327461917,32752,-17182,-7956,2619,-967,1652,25.07,77,107,3910,6,0,0
1777327461917,32767,-13792,-8010,2789,-495,1196,25.07,77,107,3910,6,0,0
1777327461968,31654,-10799,-6687,2714,-249,710,25.07,77,107,3910,6,0,0
1777327461969,24188,-7982,-5423,2203,-188,411,25.07,77,107,3910,6,0,0
1777327462000,17676,-4976,-4974,1430,-345,239,25.07,77,107,3910,6,0,0
1777327462000,12490,-1830,-3639,790,-695,59,25.07,77,107,3910,6,0,0
1777327462067,8715,1516,-1817,544,-911,-177,25.07,77,107,3910,6,0,0
1777327462067,6796,4776,-295,709,-967,-569,25.07,77,107,3910,6,0,0
1777327462101,6429,7518,792,977,-881,-982,25.07,77,107,3910,6,0,0
1777327462101,5253,8259,1859,1097,-700,-1194,25.07,77,107,3910,6,0,0
1777327462101,3586,7608,3228,1028,-393,-1011,25.07,77,107,3910,6,0,0
1777327462235,2826,8459,3899,762,-4,-529,25.07,77,107,3910,6,0,0
1777327462235,4096,10416,3320,216,342,-162,25.07,77,107,3910,6,0,0
1777327462267,7383,11403,2209,-528,606,-204,25.07,77,107,3910,6,0,0
1777327462267,11778,8727,374,-1179,794,-540,25.07,77,107,3910,6,0,0
1777327462267,17023,4836,531,-1513,876,-712,25.07,77,107,3910,6,0,0
1777327462267,23110,1347,-699,-2014,1155,-744,25.07,77,107,3910,6,0,0
1777327462301,29761,-3024,-4880,-2477,1372,-1114,25.07,77,107,3910,6,0,0
1777327462301,32767,-7350,-8430,-2474,1192,-1493,25.07,77,107,3910,6,0,0
1777327462301,32754,-11789,-8043,-1978,694,-1796,25.07,77,107,3910,6,0,0
1777327462334,32767,-16377,-4706,-1517,344,-2185,25.07,77,107,3910,6,0,0
1777327462434,32311,-20650,-816,-1353,325,-2363,25.07,77,107,3910,6,0,0
1777327462500,27225,-23070,735,-1536,582,-2164,25.07,77,107,3910,6,0,0
1777327462500,21713,-22771,-657,-1918,751,-1701,25.07,77,107,3910,6,0,0
1777327462500,15929,-20978,-1903,-2344,669,-1200,25.07,80,109,3908,6,0,0
1777327462500,9940,-19050,-1988,-2676,549,-777,25.07,80,109,3908,6,0,0
1777327462500,4674,-17407,-2381,-2666,498,-443,25.07,80,109,3908,6,0,0
1777327462500,437,-16466,-3004,-2378,414,-239,25.07,80,109,3908,6,0,0
1777327462500,-3177,-17061,-3570,-1926,247,-171,25.07,80,109,3908,6,0,0
1777327462500,-6518,-19981,-3907,-1083,-89,-29,25.07,80,109,3908,6,0,0
1777327462500,-6713,-22185,-3914,-464,-358,220,25.07,80,109,3908,6,0,0
1777327462551,-4661,-23221,-4546,127,-596,706,25.07,80,109,3908,6,0,0
1777327462551,-587,-22042,-4776,729,-757,1365,25.07,80,109,3908,6,0,0
1777327462583,4089,-19929,-6691,1274,-831,1923,25.07,80,109,3908,6,0,0
1777327462583,9322,-18752,-7583,1628,-993,2165,25.07,80,109,3908,6,0,0
1777327462635,16279,-18361,-8551,1913,-1003,2039,25.07,80,109,3908,6,0,0
1777327462635,24196,-18922,-9516,2395,-963,1742,25.07,80,109,3908,6,0,0
1777327462635,30039,-19244,-9050,2804,-780,1462,25.07,80,109,3908,6,0,0
1777327462718,32767,-19701,-9980,2936,-447,1261,25.07,80,109,3908,6,0,0
1777327462718,32760,-17781,-10471,3117,-212,1220,25.07,80,109,3908,6,0,0
1777327462718,32767,-13700,-8506,3180,-228,1234,25.07,80,109,3908,6,0,0
1777327462718,31641,-9751,-6367,2778,-232,1073,25.07,80,109,3908,6,0,0
1777327462783,23680,-6637,-5587,2121,-324,892,25.07,80,109,3908,6,0,0
1777327462783,16377,-4193,-4892,1462,-619,729,25.07,80,109,3908,6,0,0
1777327462834,11664,-968,-3874,992,-1007,516,25.07,80,109,3908,6,0,0
1777327462834,8597,2590,-1968,702,-1331,171,25.07,80,109,3908,6,0,0
1777327462834,6875,5573,-260,521,-1432,-313,25.07,80,109,3908,6,0,0
1777327462900,5519,7928,1741,570,-1298,-688,25.07,80,109,3908,6,0,0
1777327462900,3581,8972,2685,778,-827,-720,25.07,80,109,3908,6,0,0
1777327462900,2353,10454,2544,921,-313,-456,25.07,80,109,3908,6,0,0
1777327462900,1519,11620,2460,728,69,-159,25.07,80,109,3908,6,0,0
1777327462967,3020,13273,1280,59,287,8,25.07,80,109,3908,6,0,0
1777327462967,6848,13653,250,-868,302,-98,25.07,80,109,3908,6,0,0
1777327463000,11245,10576,118,-1646,277,-430,25.07,80,109,3908,6,0,0
1777327463000,18617,6859,255,-2135,444,-697,25.07,80,109,3908,6,0,0
1777327463033,27174,1776,-2885,-2481,940,-1073,25.07,80,109,3908,6,0,0
1777327463100,32767,-3634,-8310,-2401,1225,-1699,25.07,80,109,3908,6,0,0
1777327463100,32732,-8769,-10513,-1824,888,-2076,25.07,80,109,3908,6,0,0
1777327463100,32767,-13021,-6885,-1093,216,-2245,25.07,80,109,3908,6,0,0
1777327463101,32767,-15888,-670,-759,-30,-2443,25.07,80,109,3908,6,0,0
1777327463167,32157,-18393,4203,-1017,217,-2520,25.07,80,109,3908,6,0,0
1777327463167,25787,-20523,2883,-1761,737,-2317,25.07,80,109,3908,6,0,0
1777327463167,19129,-19926,-632,-2368,803,-1793,25.07,80,109,3908,6,0,0
1777327463167,12634,-17974,-1912,-2812,550,-1298,25.07,80,109,3908,6,0,0
1777327463200,6885,-17307,-1758,-3006,247,-978,25.07,80,109,3908,6,0,0
1777327463267,1920,-17607,-682,-2865,56,-721,25.07,80,109,3908,6,0,0
1777327463267,-981,-19138,-496,-2403,0,-542,25.07,80,109,3908,6,0,0
1777327463267,-4121,-21018,294,-1701,-22,-317,25.07,80,109,3908,6,0,0
1777327463333,-4829,-21825,-903,-984,63,37,25.07,80,109,3908,6,0,0
1777327463367,-3319,-21883,-3219,-296,-6,332,25.07,80,109,3908,6,0,0
1777327463367,-932,-21514,-4639,306,-246,669,25.07,80,109,3908,6,0,0
1777327463367,3087,-19776,-5489,721,-569,1092,25.07,80,109,3908,6,0,0
1777327463367,7223,-18236,-4553,1022,-867,1426,25.07,80,109,3908,6,0,0
1777327463367,10811,-18631,-4338,1261,-860,1690,25.07,80,109,3908,6,0,0
1777327463450,17031,-18958,-5815,1538,-668,1914,25.07,80,109,3908,6,0,0
1777327463450,25867,-18695,-9150,1932,-404,1924,25.07,80,109,3908,6,0,0
1777327463450,32466,-18645,-10489,2414,-226,1712,25.07,80,109,3908,6,0,0
1777327463450,32739,-18319,-10969,2715,21,1559,25.07,80,109,3908,6,0,0
1777327463550,32767,-15725,-11442,2864,283,1418,25.07,80,109,3908,6,0,0
1777327463550,32767,-12680,-10549,2971,365,1266,25.07,80,109,3908,6,0,0
1777327463550,32767,-8989,-9049,2726,323,1187,25.03,81,112,3900,6,0,0
1777327463550,28553,-5028,-7954,2081,120,1144,25.03,81,112,3900,6,0,0
1777327463550,19510,-1553,-6191,1345,-325,1111,25.03,81,112,3900,6,0,0
1777327463899,12210,1972,-3318,775,-746,986,25.03,81,112,3900,6,0,0
1777327463899,6800,5280,-1183,620,-861,683,25.03,81,112,3900,6,0,0
1777327463899,4154,10277,37,977,-822,-158,25.03,81,112,3900,6,0,0
1777327463900,3053,11499,1618,1171,-716,-737,25.03,81,112,3900,6,0,0
1777327463900,1672,11045,3281,1168,-393,-938,25.03,81,112,3900,6,0,0
1777327463900,972,10747,2973,984,51,-774,25.03,81,112,3900,6,0,0
1777327463900,2216,11146,1833,517,332,-554,25.03,81,112,3900,6,0,0
1777327463900,5092,11987,267,-222,474,-371,25.03,81,112,3900,6,0,0
1777327463900,9957,11971,-1493,-966,502,-409,25.03,81,112,3900,6,0,0
1777327463900,14165,8085,-1896,-1389,436,-607,25.03,81,112,3900,6,0,0
1777327463900,19016,4919,884,-1577,402,-533,25.03,81,112,3900,6,0,0
1777327463900,24783,3729,1148,-2205,888,-388,25.03,81,112,3900,6,0,0
1777327463932,32767,-162,-5757,-2792,1390,-1055,25.03,81,112,3900,6,0,0
1777327463932,32710,-7238,-11130,-2510,1208,-1908,25.03,81,112,3900,6,0,0
1777327463933,32767,-14525,-9970,-1587,539,-2207,25.03,81,112,3900,6,0,0
1777327463933,32767,-18078,-3802,-728,37,-1959,25.03,81,112,3900,6,0,0
1777327463933,30368,-18283,2156,-508,53,-1511,25.03,81,112,3900,6,0,0
1777327463934,25548,-17402,1905,-1040,394,-1328,25.03,81,112,3900,6,0,0
1777327463966,20767,-17247,-1673,-1587,314,-1325,25.03,81,112,3900,6,0,0
1777327463966,16015,-18335,-2068,-1945,-30,-1230,25.03,81,112,3900,6,0,0
1777327464033,11198,-19599,-1099,-2151,-193,-906,25.03,81,112,3900,6,0,0
1777327464033,6803,-19573,-375,-2081,-141,-401,25.03,81,112,3900,6,0,0
1777327464033,2799,-18304,305,-1724,-50,56,25.03,81,112,3900,6,0,0
1777327464216,-1273,-17441,532,-1268,38,303,25.03,81,112,3900,6,0,0
1777327464216,-4552,-17648,-673,-866,57,389,25.03,81,112,3900,6,0,0
1777327464216,-6359,-19004,-2074,-469,-148,461,25.03,81,112,3900,6,0,0
1777327464216,-6192,-21079,-2398,-41,-487,669,25.03,81,112,3900,6,0,0
1777327464216,-4683,-22283,-1596,357,-804,1100,25.03,81,112,3900,6,0,0
1777327464216,-1178,-21042,-1388,707,-923,1757,25.03,81,112,3900,6,0,0
1777327464216,3540,-18086,-2759,1151,-874,2245,25.03,81,112,3900,6,0,0
1777327464216,7923,-17677,-5130,1482,-902,2350,25.03,81,112,3900,6,0,0
1777327464216,15104,-18015,-7397,1668,-1004,2247,25.03,81,112,3900,6,0,0
1777327464216,23915,-17588,-8598,1982,-1243,2033,25.03,81,112,3900,6,0,0
1777327464216,29840,-17586,-6116,2190,-1215,1670,25.03,81,112,3900,6,0,0
1777327464399,32767,-18349,-6431,2237,-621,1272,25.03,81,112,3900,6,0,0
1777327464432,32745,-16566,-10067,2637,-88,930,25.03,81,112,3900,6,0,0
1777327464432,32767,-12932,-9177,3240,-72,728,25.03,81,112,3900,6,0,0
1777327464432,32716,-8857,-6051,3090,-135,516,25.03,81,112,3900,6,0,0
1777327464432,26159,-5445,-4642,2254,-216,274,25.03,81,112,3900,6,0,0
1777327464432,17716,-3219,-3975,1274,-500,123,25.03,81,112,3900,6,0,0
1777327464432,11413,-789,-3575,527,-893,-18,25.03,81,112,3900,6,0,0
1777327464433,7610,1626,-2343,250,-1238,-255,25.03,81,112,3900,6,0,0
1777327464433,6438,4317,-737,420,-1382,-594,25.03,81,112,3900,6,0,0
1777327464433,4840,5792,1743,842,-1247,-848,25.03,81,112,3900,6,0,0
1777327464433,2807,6435,3607,1196,-789,-799,25.03,81,112,3900,6,0,0
1777327464549,2052,7475,3412,1277,-248,-499,25.03,81,112,3900,6,0,0
1777327464582,1715,8546,3112,902,146,-150,25.03,81,112,3900,6,0,0
1777327464582,2640,9764,1922,-13,461,104,25.03,81,112,3900,6,0,0
1777327464632,6764,10536,-683,-1041,517,119,25.01,83,114,3876,6,0,0
1777327464681,10936,8480,-1085,-1671,358,-92,25.01,83,114,3876,6,0,0
1777327464682,15663,4762,1328,-1857,257,-286,25.01,83,114,3876,6,0,0
1777327464682,21973,3400,2524,-2085,697,-355,25.01,83,114,3876,6,0,0
1777327464682,31070,692,-2852,-2410,1387,-1054,25.01,83,114,3876,6,0,0
1777327464682,32767,-5380,-9162,-2259,1532,-2020,25.01,83,114,3876,6,0,0
1777327464713,32767,-11670,-9489,-1457,1004,-2308,25.01,83,114,3876,6,0,0
1777327464747,32766,-13849,-3285,-657,550,-1993,25.01,83,114,3876,6,0,0
1777327464747,32755,-13149,607,-524,632,-1826,25.01,83,114,3876,6,0,0
1777327464747,29654,-13538,1924,-965,852,-1988,25.01,83,114,3876,6,0,0
1777327464747,22128,-16474,-1649,-1867,853,-2028,25.01,83,114,3876,6,0,0
1777327464813,16254,-17934,-1774,-2260,522,-1647,25.01,83,114,3876,6,0,0
1777327464813,11181,-18196,-922,-2525,266,-1116,25.01,83,114,3876,6,0,0
1777327464814,6460,-17837,20,-2525,183,-591,25.01,83,114,3876,6,0,0
1777327464814,2839,-17294,115,-2255,197,-194,25.01,83,114,3876,6,0,0
1777327464847,-480,-17309,-829,-1750,176,13,25.01,83,114,3876,6,0,0
1777327464847,-3772,-18910,-1167,-1142,49,76,25.01,83,114,3876,6,0,0
1777327464880,-5517,-20917,-1212,-534,-99,213,25.01,83,114,3876,6,0,0
1777327464880,-4285,-22463,-2296,18,-240,511,25.01,83,114,3876,6,0,0
1777327464946,-1502,-22517,-3887,519,-433,1024,25.01,83,114,3876,6,0,0
1777327464946,2834,-21604,-5427,905,-662,1550,25.01,83,114,3876,6,0,0
1777327464980,7298,-21634,-6635,1110,-946,2027,25.01,83,114,3876,6,0,0
1777327464980,13958,-21790,-6793,1093,-1153,2276,25.01,83,114,3876,6,0,0
1777327464980,21115,-21784,-8433,1226,-1025,2369,25.01,83,114,3876,6,0,0
1777327465013,29149,-21318,-10550,1618,-936,2238,25.01,83,114,3876,6,0,0
1777327465013,32767,-19762,-10258,2048,-778,2066,25.01,83,114,3876,6,0,0
1777327465080,32751,-18199,-10924,2288,-286,1593,25.01,83,114,3876,6,0,0
1777327465113,32767,-17007,-11895,2610,-15,1186,25.01,83,114,3876,6,0,0
1777327465113,32767,-14286,-9454,2656,-40,1281,25.01,83,114,3876,6,0,0
1777327465113,31767,-9439,-8109,2092,-199,1545,25.01,83,114,3876,6,0,0
1777327465163,21490,-4966,-6894,1324,-662,1824,25.01,83,114,3876,6,0,0
1777327465246,12535,-64,-4381,738,-1195,2004,25.01,83,114,3876,6,0,0
1777327465246,6768,5356,-2368,536,-1540,1894,25.01,83,114,3876,6,0,0
1777327465246,4738,10562,-296,775,-1714,1260,25.01,83,114,3876,6,0,0
1777327465246,3158,13593,2707,1193,-1580,416,25.01,83,114,3876,6,0,0
1777327465246,612,13514,3865,1437,-1089,-128,25.01,83,114,3876,6,0,0
1777327465246,-154,13143,3780,1452,-591,-219,25.01,83,114,3876,6,0,0
1777327465313,-419,12323,4244,1170,-188,-43,25.01,83,114,3876,6,0,0
1777327465313,1717,11463,4273,494,195,198,25.01,83,114,3876,6,0,0
1777327465446,5473,10285,3730,-349,578,445,25.01,83,114,3876,6,0,0
1777327465447,11321,9165,585,-1132,909,443,25.01,83,114,3876,6,0,0
1777327465447,17165,5851,-1364,-1596,757,86,25.01,83,114,3876,6,0,0
1777327465447,24632,2681,1763,-1986,582,-427,25.01,83,114,3876,6,0,0
1777327465447,32237,-2322,79,-2610,1070,-1245,25.01,83,114,3876,6,0,0
1777327465447,32755,-8720,-5994,-2862,1538,-1938,25.01,83,114,3876,6,0,0
1777327465447,32767,-14037,-9409,-2442,1267,-2086,25.01,83,114,3876,6,0,0
1777327465579,32679,-15769,-5487,-1691,638,-1910,25.01,83,114,3876,6,0,0
1777327465579,29420,-14959,1251,-1253,615,-1784,25.01,83,114,3876,6,0,0
1777327465579,24261,-14234,4560,-1240,1226,-1837,25.01,85,117,3878,6,0,0
1777327465580,21269,-13938,716,-1595,1855,-1893,25.01,85,117,3878,6,0,0
1777327465580,18216,-14560,-3500,-1979,1874,-1764,25.01,85,117,3878,6,0,0
1777327465580,14183,-15068,-5298,-2288,1549,-1466,25.01,85,117,3878,6,0,0
1777327465580,10034,-15211,-5299,-2529,1215,-1044,25.01,85,117,3878,6,0,0
1777327465598,6583,-14709,-5187,-2647,920,-639,25.01,85,117,3878,6,0,0
1777327465662,4105,-14118,-4600,-2615,656,-341,25.01,85,117,3878,6,0,0
1777327465662,1986,-14285,-3188,-2420,450,-154,25.01,85,117,3878,6,0,0
1777327465662,1442,-14950,-2224,-2001,345,-37,25.01,85,117,3878,6,0,0
1777327465763,1237,-15697,-1127,-1376,314,72,25.01,85,117,3878,6,0,0
1777327465763,1421,-16445,-52,-723,381,235,25.01,85,117,3878,6,0,0
1777327465796,1630,-16293,-382,-255,508,528,25.01,85,117,3878,6,0,0
1777327465796,2178,-16415,-2171,-68,453,829,25.01,85,117,3878,6,0,0
1777327465796,3729,-18215,-4036,-153,227,1111,25.01,85,117,3878,6,0,0
1777327465796,11054,-19574,-7496,-158,-32,1264,25.01,85,117,3878,6,0,0
1777327465796,24261,-19603,-9856,190,-302,1021,25.01,85,117,3878,6,0,0
1777327465829,32767,-22357,-9702,807,-225,586,25.01,85,117,3878,6,0,0
1777327465829,32767,-28253,-8606,1492,401,916,25.01,85,117,3878,6,0,0
1777327465879,32766,-25321,-11800,1210,700,1849,25.01,85,117,3878,6,0,0
1777327465879,32165,-18817,-13678,559,259,2535,25.01,85,117,3878,6,0,0
1777327465879,28869,-13613,-12946,-31,-525,2708,25.01,85,117,3878,6,0,0
1777327465979,24712,-9609,-9939,-233,-1226,2465,25.01,85,117,3878,6,0,0
1777327465979,19991,-6963,-5656,-139,-1555,2064,25.01,85,117,3878,6,0,0
1777327465979,15916,-5024,-2992,44,-1478,1685,25.01,85,117,3878,6,0,0
1777327465979,12366,-3587,-1849,264,-1294,1415,25.01,85,117,3878,6,0,0
1777327466013,9581,-2254,-1515,458,-1214,1281,25.01,85,117,3878,6,0,0
1777327466013,7212,-958,-575,581,-1292,1261,25.01,85,117,3878,6,0,0
1777327466046,5562,-155,839,565,-1417,1285,25.01,85,117,3878,6,0,0
1777327466147,4805,366,2562,450,-1496,1360,25.01,85,117,3878,6,0,0
1777327466147,5024,1341,4288,369,-1380,1461,25.01,85,117,3878,6,0,0
1777327466147,6826,2303,3987,457,-1118,1405,25.01,85,117,3878,6,0,0
1777327466147,7180,1114,3866,687,-859,1150,25.01,85,117,3878,6,0,0
1777327466147,9186,-1223,2804,786,-597,868,25.01,85,117,3878,6,0,0
1777327466147,12800,-4482,1638,748,-334,609,25.01,85,117,3878,6,0,0
1777327466213,17237,-7900,587,731,38,404,25.01,85,117,3878,6,0,0
1777327466213,20126,-10812,629,828,484,337,25.01,85,117,3878,6,0,0
1777327466247,21038,-12230,947,722,1008,594,25.01,85,117,3878,6,0,0
1777327466247,22436,-10140,-1250,258,1459,890,25.01,85,117,3878,6,0,0
1777327466247,24084,-6942,-3101,-425,1519,776,25.01,85,117,3878,6,0,0
1777327466280,24135,-6075,-4294,-1261,1397,197,25.01,85,117,3878,6,0,0
1777327466280,23038,-8161,-5968,-2019,1209,-481,25.01,85,117,3878,6,0,0
1777327466346,21052,-10390,-6653,-2393,908,-729,25.01,85,117,3878,6,0,0
1777327466346,19051,-10825,-6184,-2402,591,-679,25.01,85,117,3878,6,0,0
1777327466413,16627,-9896,-3535,-2197,312,-634,25.01,85,117,3878,6,0,0
1777327466413,13818,-9016,348,-1931,335,-747,25.01,85,117,3878,6,0,0
1777327466413,11611,-8506,3851,-1622,780,-943,25.01,85,117,3878,6,0,0
1777327466413,10754,-8007,4109,-1355,1546,-1065,25.01,85,117,3878,6,0,0
1777327466413,11045,-7406,1522,-1237,2181,-1047,25.01,85,117,3878,6,0,0
1777327466513,11684,-6629,-1222,-1260,2491,-1028,25.01,85,117,3878,6,0,0
1777327466513,12306,-5853,-2317,-1431,2557,-1055,25.01,85,117,3878,6,0,0
1777327466513,12581,-5562,-2557,-1746,2591,-1042,24.99,87,119,3893,7,0,0
1777327466563,13118,-5150,-2572,-2164,2670,-778,24.99,87,119,3893,7,0,0
1777327466563,12742,-3600,-2830,-2609,2843,-261,24.99,87,119,3893,7,0,0
1777327466563,12651,-482,-4153,-3198,2966,270,24.99,87,119,3893,7,0,0
1777327466613,12930,2110,-5321,-3843,3008,599,24.99,87,119,3893,7,0,0
1777327466613,16088,3981,-7252,-4363,3037,744,24.99,87,119,3893,7,0,0
1777327466730,20831,3777,-9045,-4608,2985,694,24.99,87,119,3893,7,0,0
1777327466730,26173,1540,-9980,-4637,3102,626,24.99,87,119,3893,7,0,0
1777327466730,30777,-766,-11650,-4468,3421,620,24.99,87,119,3893,7,0,0
1777327466730,32767,-1974,-13449,-4230,3672,755,24.99,87,119,3893,7,0,0
1777327466730,32681,-2186,-14085,-4049,3712,730,24.99,87,119,3893,7,0,0
1777327466730,31563,-3131,-14834,-4004,3718,399,24.99,87,119,3893,7,0,0
1777327466730,28791,-5570,-15759,-3975,3579,-62,24.99,87,119,3893,7,0,0
1777327466730,24496,-8726,-16254,-3899,3240,-371,24.99,87,119,3893,7,0,0
1777327466781,20145,-11095,-15671,-3800,2779,-536,24.99,87,119,3893,7,0,0
1777327466781,15841,-13054,-13924,-3584,2360,-613,24.99,87,119,3893,7,0,0
1777327466813,11081,-14065,-11745,-3230,2078,-579,24.99,87,119,3893,7,0,0
1777327466813,5854,-13610,-8987,-2822,1973,-447,24.99,87,119,3893,7,0,0
1777327466879,2361,-13016,-7634,-2484,2011,-259,24.99,87,119,3893,7,0,0
1777327466913,-385,-12428,-8122,-2321,1968,-50,24.99,87,119,3893,7,0,0
1777327466913,-1970,-12658,-9958,-2352,1761,133,24.99,87,119,3893,7,0,0
1777327466913,-2361,-13241,-11897,-2369,1357,265,24.99,87,119,3893,7,0,0
1777327466946,1147,-16473,-13615,-1958,575,139,24.99,87,119,3893,7,0,0
1777327466946,2275,-20128,-12667,-1295,143,266,24.99,87,119,3893,7,0,0
1777327466946,3190,-22980,-11634,-586,-63,717,24.99,87,119,3893,7,0,0
1777327467013,5131,-24755,-11971,-21,-158,1256,24.99,87,119,3893,7,0,0
1777327467013,9173,-26548,-14517,247,-356,1531,24.99,87,119,3893,7,0,0
1777327467046,14893,-29535,-16169,287,-775,1421,24.99,87,119,3893,7,0,0
1777327467046,21070,-32666,-16396,330,-1129,1283,24.99,87,119,3893,7,0,0
1777327467096,26408,-32748,-15720,822,-1207,1501,24.99,87,119,3893,7,0,0
1777327467096,28548,-32768,-15598,1663,-992,2296,24.99,87,119,3893,7,0,0
1777327467147,29241,-28083,-15776,2336,-805,2964,24.99,87,119,3893,7,0,0
1777327467180,27077,-20738,-14689,2677,-887,3134,24.99,87,119,3893,7,0,0
1777327467180,24752,-13881,-12409,2768,-1075,2826,24.99,87,119,3893,7,0,0
1777327467180,21473,-8586,-8466,2764,-1289,2204,24.99,87,119,3893,7,0,0
1777327467247,18221,-4362,-4807,2578,-1320,1495,24.99,87,119,3893,7,0,0
1777327467247,13551,-1068,-2547,2152,-1265,941,24.99,87,119,3893,7,0,0
1777327467247,9868,2022,-1108,1680,-1206,572,24.99,87,119,3893,7,0,0
1777327467314,6574,4676,-242,1405,-1162,261,24.99,87,119,3893,7,0,0
1777327467314,5607,7868,554,1338,-1166,-69,24.99,87,119,3893,7,0,0
1777327467314,6378,10755,2043,1214,-1127,-396,24.99,87,119,3893,7,0,0
1777327467314,8377,11894,2675,869,-933,-726,24.99,87,119,3893,7,0,0
1777327467314,9593,11783,4082,571,-601,-843,24.99,87,119,3893,7,0,0
1777327467380,10231,12033,5489,305,-45,-703,24.99,87,119,3893,7,0,0
1777327467380,11336,12430,4821,-185,629,-626,24.99,87,119,3893,7,0,0
1777327467414,13026,11282,2317,-830,1157,-753,24.99,87,119,3893,7,0,0
1777327467414,14713,8073,253,-1367,1388,-803,24.99,87,119,3893,7,0,0
1777327467447,17676,5082,430,-1827,1494,-717,24.99,87,119,3893,7,0,0
1777327467447,20194,2101,-346,-2564,1827,-761,24.99,87,119,3893,7,0,0
1777327467514,25265,-2093,-5006,-3277,2129,-1212,24.99,87,119,3893,7,0,0
1777327467514,30681,-7231,-9341,-3448,2066,-1799,24.99,87,119,3893,7,0,0
1777327467514,32767,-12961,-9747,-3127,1865,-2288,24.98,90,121,3896,7,0,0
1777327467564,32757,-18860,-8409,-2588,1983,-2619,24.98,90,121,3896,7,0,0
1777327467564,32338,-23045,-9874,-2115,2314,-2646,24.98,90,121,3896,7,0,0
1777327467597,29574,-24766,-11662,-1810,2248,-2421,24.98,90,121,3896,7,0,0
1777327467597,24049,-24631,-10735,-1770,1790,-2057,24.98,90,121,3896,7,0,0
1777327467630,18039,-23369,-8140,-2029,1346,-1600,24.98,90,121,3896,7,0,0
1777327467630,12086,-21355,-5997,-2426,1098,-1058,24.98,90,121,3896,7,0,0
1777327467697,7301,-18701,-5438,-2724,1002,-492,24.98,90,121,3896,7,0,0
1777327467697,2861,-16354,-5670,-2744,923,-73,24.98,90,121,3896,7,0,0
1777327467697,-1426,-15246,-6415,-2600,760,183,24.98,90,121,3896,7,0,0
1777327467830,-4166,-14965,-6673,-2281,515,276,24.98,90,121,3896,7,0,0
1777327467830,-5812,-16921,-6444,-1776,265,202,24.98,90,121,3896,7,0,0
1777327467830,-6451,-19458,-5834,-1131,71,288,24.98,90,121,3896,7,0,0
1777327467830,-5314,-21319,-6426,-486,-84,607,24.98,90,121,3896,7,0,0
1777327467830,-3093,-21677,-7667,78,-338,1084,24.98,90,121,3896,7,0,0
1777327467830,-47,-20764,-8414,493,-708,1588,24.98,90,121,3896,7,0,0
1777327467830,3363,-20071,-8964,767,-1130,2002,24.98,90,121,3896,7,0,0
1777327467897,7686,-20469,-8232,939,-1434,2252,24.98,90,121,3896,7,0,0
1777327467897,13628,-22197,-8575,1167,-1392,2135,24.98,90,121,3896,7,0,0
1777327467897,19681,-26648,-10189,1491,-1122,1727,24.98,90,121,3896,7,0,0
1777327467897,26231,-31037,-13767,1842,-783,1609,24.98,90,121,3896,7,0,0
1777327467963,32182,-32404,-16805,2155,-712,1939,24.98,90,121,3896,7,0,0
1777327467963,32757,-28226,-18592,2485,-818,2443,24.98,90,121,3896,7,0,0
1777327467997,32767,-20124,-17856,2928,-1107,2439,24.98,90,121,3896,7,0,0
1777327467997,32767,-13216,-13086,3214,-1367,1861,24.98,90,121,3896,7,0,0
1777327468030,30492,-7359,-6828,2941,-1474,1386,24.98,90,121,3896,7,0,0
1777327468030,20418,-2093,-3081,1992,-1398,1247,24.98,90,121,3896,7,0,0
1777327468030,11486,2382,-1810,903,-1344,1223,24.98,90,121,3896,7,0,0
1777327468096,6350,9606,-1950,236,-1690,684,24.98,90,121,3896,7,0,0
1777327468096,6221,13742,1396,552,-1879,-16,24.98,90,121,3896,7,0,0
1777327468130,5871,14875,5412,933,-1573,-705,24.98,90,121,3896,7,0,0
1777327468130,5492,13946,6989,1168,-934,-1080,24.98,90,121,3896,7,0,0
1777327468163,5521,12778,7176,1099,-251,-1075,24.98,90,121,3896,7,0,0
1777327468163,5668,12234,6433,613,308,-912,24.98,90,121,3896,7,0,0
1777327468230,7170,12319,4916,-247,721,-833,24.98,90,121,3896,7,0,0
1777327468230,10062,10495,2627,-1160,996,-991,24.98,90,121,3896,7,0,0
1777327468230,13222,5966,916,-1741,1095,-1176,24.98,90,121,3896,7,0,0
1777327468264,19049,2989,1885,-1996,1196,-1206,24.98,90,121,3896,7,0,0
1777327468264,23034,49,1808,-2475,1659,-1284,24.98,90,121,3896,7,0,0
1777327468297,29732,-5042,-3486,-3042,2171,-1848,24.98,90,121,3896,7,0,0
1777327468297,32767,-10333,-8400,-3003,2220,-2379,24.98,90,121,3896,7,0,0
1777327468363,32763,-15014,-8170,-2341,1980,-2591,24.98,90,121,3896,7,0,0
1777327468397,32766,-18087,-6716,-1660,2000,-2849,24.98,90,121,3896,7,0,0
1777327468397,32767,-21541,-7190,-1285,2069,-3210,24.98,90,121,3896,7,0,0
1777327468397,29803,-25140,-6523,-1265,1911,-3061,24.98,90,121,3896,7,0,0
1777327468397,23085,-26353,-5772,-1596,1652,-2343,24.98,90,121,3896,7,0,0
1777327468464,16735,-24209,-5488,-2262,1333,-1504,24.98,90,121,3896,7,0,0
1777327468464,9729,-21638,-5345,-3053,1032,-828,24.98,90,121,3896,7,0,0
1777327468497,3375,-20233,-6382,-3565,848,-323,24.98,90,121,3896,7,0,0
1777327468497,-1278,-19666,-7933,-3558,655,-18,24.98,90,121,3896,7,0,0
1777327468547,-4848,-21053,-9200,-3086,444,39,24.96,93,124,3886,7,0,0
1777327468613,-6322,-23819,-10798,-2399,251,159,24.96,93,124,3886,7,0,0
1777327468613,-5851,-26176,-12385,-1768,-19,523,24.96,93,124,3886,7,0,0
1777327468613,-4580,-26923,-12442,-1202,-477,1205,24.96,93,124,3886,7,0,0
1777327468613,-1396,-23570,-12044,-618,-893,2016,24.96,93,124,3886,7,0,0
1777327468613,2270,-18805,-11430,84,-1259,2627,24.96,93,124,3886,7,0,0
1777327468613,7783,-15390,-11875,753,-1510,2826,24.96,93,124,3886,7,0,0
1777327468680,12368,-16491,-12735,1151,-1798,2556,24.96,93,124,3886,7,0,0
1777327468680,18935,-21781,-15016,1383,-2038,2155,24.96,93,124,3886,7,0,0
1777327468746,25526,-26367,-16073,1466,-2278,2005,24.96,93,124,3886,7,0,0
1777327468746,30830,-25929,-17389,1778,-2234,2307,24.96,93,124,3886,7,0,0
1777327468746,32767,-20590,-18186,2277,-2149,2197,24.96,93,124,3886,7,0,0
1777327468746,32767,-17253,-17609,2986,-2016,1387,24.96,93,124,3886,7,0,0
1777327468780,32766,-15445,-13161,3696,-1940,639,24.96,93,124,3886,7,0,0
1777327468813,30650,-12137,-7491,3841,-1762,605,24.96,93,124,3886,7,0,0
1777327468813,21443,-6006,-3621,3254,-1600,904,24.96,93,124,3886,7,0,0
1777327468863,13059,-274,-1240,2321,-1536,1033,24.96,93,124,3886,7,0,0
1777327468863,9061,5225,-651,1466,-1517,749,24.96,93,124,3886,7,0,0
1777327468896,7362,9506,-520,1036,-1620,122,24.96,93,124,3886,7,0,0
1777327468897,6612,11936,2022,1092,-1734,-555,24.96,93,124,3886,7,0,0
1777327468931,4887,12008,5257,1192,-1489,-897,24.96,93,124,3886,7,0,0
1777327468931,4247,11847,7043,1102,-915,-872,24.96,93,124,3886,7,0,0
1777327468931,2810,11212,7257,844,-269,-686,24.96,93,124,3886,7,0,0
1777327468996,2940,11370,5994,345,226,-487,24.96,93,124,3886,7,0,0
1777327468997,5525,10410,3889,-406,442,-458,24.96,93,124,3886,7,0,0
1777327469031,9829,7474,2939,-1262,462,-562,24.96,93,124,3886,7,0,0
1777327469031,14145,2632,4220,-1884,519,-616,24.96,93,124,3886,7,0,0
1777327469062,19766,599,7138,-2348,1001,-457,24.96,93,124,3886,7,0,0
1777327469063,25979,-3018,2433,-2975,2039,-673,24.96,93,124,3886,7,0,0
1777327469130,32767,-8347,-8368,-3316,2606,-1508,24.96,93,124,3886,7,0,0
1777327469130,32717,-15470,-14766,-2940,2252,-2277,24.96,93,124,3886,7,0,0
1777327469130,32767,-23248,-13677,-2171,1592,-2541,24.96,93,124,3886,7,0,0
1777327469164,32730,-26395,-9561,-1576,1297,-2235,24.96,93,124,3886,7,0,0
1777327469164,26380,-25711,-5713,-1372,1334,-1761,24.96,93,124,3886,7,0,0
1777327469197,15075,-20232,-3600,-1633,1505,-1264,24.96,93,124,3886,7,0,0
1777327469197,8133,-16281,-3817,-2073,1481,-1062,24.96,93,124,3886,7,0,0
1777327469264,3943,-15073,-5713,-2417,1281,-954,24.96,93,124,3886,7,0,0
1777327469297,-1609,-15428,-5689,-2420,972,-702,24.96,93,124,3886,7,0,0
1777327469297,-4423,-15894,-5792,-2262,768,-486,24.96,93,124,3886,7,0,0
1777327469363,-7505,-17052,-5460,-2015,624,-427,24.96,93,124,3886,7,0,0
1777327469363,-8207,-18666,-6844,-1706,634,-375,24.96,93,124,3886,7,0,0
1777327469363,-7900,-21387,-9939,-1288,526,-168,24.96,93,124,3886,7,0,0
1777327469396,-5138,-23519,-13284,-801,137,227,24.96,93,124,3886,7,0,0
1777327469397,-1939,-24508,-14138,-149,-533,891,24.96,93,124,3886,7,0,0
1777327469397,1845,-22252,-12563,603,-1106,1676,24.96,93,124,3886,7,0,0
1777327469430,6046,-18728,-12503,1141,-1313,2195,24.96,93,124,3886,7,0,0
1777327469430,9691,-18851,-13998,1409,-1515,2281,24.96,93,124,3886,7,0,0
1777327469496,14608,-20700,-15489,1630,-1702,2178,24.96,93,124,3886,7,0,0
1777327469496,23732,-23938,-18178,1956,-1840,1827,24.96,93,124,3886,7,0,0
1777327469496,30964,-26128,-18088,2473,-2013,1629,24.96,93,124,3886,7,0,0
1777327469530,32767,-25508,-17122,3026,-1814,1583,24.97,95,126,3893,7,0,0
1777327469530,32767,-22109,-17638,3500,-1361,1322,24.97,95,126,3893,7,0,0
1777327469580,32766,-17125,-13847,3819,-1394,1199,24.97,95,126,3893,7,0,0
1777327469580,31727,-10491,-7265,3264,-1462,1254,24.97,95,126,3893,7,0,0
1777327469613,19647,-4091,-2021,1921,-1404,1274,24.97,95,126,3893,7,0,0
1777327469613,11959,1438,-2056,548,-1318,1075,24.97,95,126,3893,7,0,0
1777327469654,6955,6199,-2324,-104,-1536,545,24.97,95,126,3893,7,0,0
1777327469654,5383,10332,339,179,-1771,-305,24.97,95,126,3893,7,0,0
1777327469654,5795,12124,3739,864,-1541,-1211,24.97,95,126,3893,7,0,0
1777327469696,5572,11226,5291,1562,-1019,-1775,24.97,95,126,3893,7,0,0
1777327469696,5651,10897,5752,1892,-554,-1821,24.97,95,126,3893,7,0,0
1777327469745,4830,11096,5742,1534,-279,-1627,24.97,95,126,3893,7,0,0
1777327469746,4551,11356,6366,500,-165,-1376,24.97,95,126,3893,7,0,0
1777327469812,5813,11539,6352,-831,-7,-1155,24.97,95,126,3893,7,0,0
1777327469812,8089,10402,5312,-1897,356,-1066,24.97,95,126,3893,7,0,0
1777327469878,11340,7551,2826,-2216,808,-1013,24.97,95,126,3893,7,0,0
1777327469878,17915,4338,1140,-1997,1057,-924,24.97,95,126,3893,7,0,0
1777327469878,24195,2000,637,-2092,1390,-898,24.97,95,126,3893,7,0,0
1777327469878,32767,-3724,-5350,-2750,1953,-1469,24.97,95,126,3893,7,0,0
1777327469878,32699,-11155,-12619,-2864,2102,-2095,24.97,95,126,3893,7,0,0
1777327469945,32767,-17629,-14817,-2195,1671,-2227,24.97,95,126,3893,7,0,0
1777327469945,32767,-21207,-11708,-1465,1112,-2197,24.97,95,126,3893,7,0,0
1777327469979,32298,-22805,-6485,-1349,855,-1919,24.97,95,126,3893,7,0,0
1777327469979,24870,-21500,-3196,-1886,928,-1461,24.97,95,126,3893,7,0,0
1777327470012,19050,-18635,-4802,-2708,1119,-1122,24.97,95,126,3893,7,0,0
1777327470012,14225,-17753,-7572,-3311,1039,-930,24.97,95,126,3893,7,0,0
1777327470012,8467,-17949,-8101,-3480,777,-589,24.97,95,126,3893,7,0,0
1777327470078,2291,-18353,-7155,-3186,608,7,24.97,95,126,3893,7,0,0
1777327470078,-2828,-17274,-6537,-2598,583,619,24.97,95,126,3893,7,0,0
1777327470111,-5927,-15979,-7912,-1957,553,866,24.97,95,126,3893,7,0,0
1777327470111,-7794,-16457,-9680,-1360,232,764,24.97,95,126,3893,7,0,0
1777327470145,-7217,-18252,-11145,-815,-247,588,24.97,95,126,3893,7,0,0
1777327470145,-5599,-21272,-11497,-209,-788,723,24.97,95,126,3893,7,0,0
1777327470245,-2048,-22019,-11649,411,-1198,1259,24.97,95,126,3893,7,0,0
1777327470245,2610,-19844,-12766,965,-1460,1899,24.97,95,126,3893,7,0,0
1777327470245,6713,-17150,-14713,1311,-1746,2273,24.97,95,126,3893,7,0,0
1777327470245,10274,-17072,-15874,1495,-2165,2308,24.97,95,126,3893,7,0,0
1777327470245,16417,-18918,-16619,1682,-2379,2036,24.97,95,126,3893,7,0,0
1777327470278,22170,-21860,-17734,1968,-2243,1680,24.97,95,126,3893,7,0,0
1777327470278,30008,-21599,-19998,2648,-1796,1606,24.97,95,126,3893,7,0,0
1777327470345,32767,-18210,-20602,3084,-1308,1236,24.97,95,126,3893,7,0,0
1777327470378,32767,-15122,-19842,3598,-1028,687,24.97,95,126,3893,7,0,0
1777327470378,32766,-11321,-14432,3687,-1065,514,24.97,95,126,3893,7,0,0
1777327470378,26615,-7034,-9040,2970,-1090,501,24.97,95,126,3893,7,0,0
1777327470378,17342,-3349,-5390,1879,-1099,586,24.97,95,126,3893,7,0,0
1777327470412,11095,1292,-3663,1016,-1150,650,24.97,95,126,3893,7,0,0
1777327470412,8513,6237,-3064,685,-1346,407,24.97,95,126,3893,7,0,0
1777327470478,7723,10383,-196,882,-1577,-140,24.97,95,126,3893,7,0,0
1777327470478,7155,11755,4079,1217,-1462,-709,24.97,95,126,3893,7,0,0
1777327470512,5503,10834,7182,1397,-936,-977,24.97,95,126,3893,7,0,0
1777327470512,5146,8913,7377,1296,-260,-880,24.97,95,126,3893,7,0,0
1777327470578,4532,7353,6311,913,232,-509,24.93,98,128,3895,7,0,0
1777327470578,5298,8007,5075,198,537,-121,24.93,98,128,3895,7,0,0
1777327470578,8062,8346,3965,-671,738,-11,24.93,98,128,3895,7,0,0
1777327470611,11991,6142,2205,-1367,963,-99,24.93,98,128,3895,7,0,0
1777327470611,15633,2203,923,-1703,1095,-198,24.93,98,128,3895,7,0,0
1777327470645,21653,334,1649,-1885,1199,-273,24.93,98,128,3895,7,0,0
1777327470645,25741,-3911,-238,-2514,1696,-754,24.93,98,128,3895,7,0,0
1777327470696,31249,-10428,-9172,-3242,2087,-1552,24.93,98,128,3895,7,0,0
1777327470696,32767,-18030,-15126,-3287,1648,-1973,24.93,98,128,3895,7,0,0
1777327470844,32442,-23636,-13369,-2642,921,-1888,24.93,98,128,3895,7,0,0
1777327470844,28935,-24884,-8101,-1795,857,-1566,24.93,98,128,3895,7,0,0
1777327470844,24398,-24450,-6034,-1109,1274,-1393,24.93,98,128,3895,7,0,0
1777327470844,18590,-23422,-5263,-693,1635,-1211,24.93,98,128,3895,7,0,0
1777327470844,12511,-20972,-5139,-695,1821,-929,24.93,98,128,3895,7,0,0
1777327470844,6714,-18947,-6223,-1075,1786,-618,24.93,98,128,3895,7,0,0
1777327470844,1400,-17843,-7832,-1670,1464,-299,24.93,98,128,3895,7,0,0
1777327470878,-3690,-17893,-8215,-2194,916,40,24.93,98,128,3895,7,0,0
1777327470878,-7463,-18412,-8229,-2330,399,370,24.93,98,128,3895,7,0,0
1777327470928,-9408,-19265,-8588,-1960,-122,646,24.93,98,128,3895,7,0,0
1777327470928,-9656,-19937,-7912,-1215,-592,841,24.93,98,128,3895,7,0,0
1777327470928,-9028,-20679,-7529,-369,-881,1114,24.93,98,128,3895,7,0,0
1777327470961,-5101,-20020,-8701,403,-1089,1435,24.93,98,128,3895,7,0,0
1777327470961,47,-19485,-10386,949,-1324,1702,24.93,98,128,3895,7,0,0
1777327471061,4769,-19888,-11963,1314,-1673,1897,24.93,98,128,3895,7,0,0
1777327471061,10133,-21410,-12933,1540,-1937,1943,24.93,98,128,3895,7,0,0
1777327471061,16857,-24632,-14880,1600,-2011,1691,24.93,98,128,3895,7,0,0
1777327471061,24906,-27128,-18501,1432,-1853,1300,24.93,98,128,3895,7,0,0
1777327471094,31645,-28684,-22087,1451,-1694,1072,24.93,98,128,3895,7,0,0
1777327471094,32767,-26559,-23630,1885,-1664,1219,24.93,98,128,3895,7,0,0
1777327471094,32767,-18800,-22172,2458,-1816,1424,24.93,98,128,3895,7,0,0
1777327471178,31517,-10124,-14915,2812,-2240,1352,24.93,98,128,3895,7,0,0
1777327471178,21680,-3804,-6224,2599,-2299,992,24.93,98,128,3895,7,0,0
1777327471178,12768,977,-220,1974,-1846,585,24.93,98,128,3895,7,0,0
1777327471178,8090,4922,320,1456,-1336,128,24.93,98,128,3895,7,0,0
1777327471245,5955,7977,-66,1342,-1226,-489,24.93,98,128,3895,7,0,0
1777327471245,6691,9588,1461,1474,-1332,-1109,24.93,98,128,3895,7,0,0
1777327471278,7741,8278,3352,1488,-1199,-1450,24.93,98,128,3895,7,0,0
1777327471278,7638,7029,3542,1326,-907,-1201,24.93,98,128,3895,7,0,0
1777327471278,5777,7570,4562,978,-660,-554,24.93,98,128,3895,7,0,0
1777327471312,4974,9432,7150,359,-320,-98,24.93,98,128,3895,7,0,0
1777327471312,7262,10025,7328,-489,290,-124,24.93,98,128,3895,7,0,0
1777327471378,10970,6831,3884,-1355,896,-445,24.93,98,128,3895,7,0,0
1777327471378,13732,2068,1966,-1873,1151,-549,24.93,98,128,3895,7,0,0
1777327471411,18564,-308,1371,-2279,1413,-498,24.93,98,128,3895,7,0,0
1777327471412,27535,-7174,-7518,-3322,1915,-1190,24.93,98,128,3895,7,0,0
1777327471478,32767,-12946,-12268,-3458,1672,-1794,24.93,98,128,3895,7,0,0
1777327471478,32731,-19076,-10617,-2759,1339,-2146,24.93,98,128,3895,7,0,0
1777327471478,32767,-23690,-7026,-1788,1669,-2264,24.93,98,128,3895,7,0,0
1777327471511,30962,-26550,-5718,-1088,2419,-2017,24.93,98,128,3895,7,0,0
1777327471511,24850,-25067,-7576,-810,2882,-1530,24.93,99,131,3896,7,0,0
1777327471628,17346,-21845,-8215,-974,2765,-1136,24.93,99,131,3896,7,0,0
1777327471628,10081,-19131,-8914,-1461,2361,-864,24.93,99,131,3896,7,0,0
1777327471628,4261,-17666,-9338,-2043,1793,-624,24.93,99,131,3896,7,0,0
1777327471628,-766,-17143,-9384,-2440,1275,-291,24.93,99,131,3896,7,0,0
1777327471695,-4258,-16672,-9357,-2407,840,91,24.93,99,131,3896,7,0,0
1777327471695,-6582,-16435,-9060,-1938,529,340,24.93,99,131,3896,7,0,0
1777327471695,-8743,-16961,-9615,-1226,327,438,24.93,99,131,3896,7,0,0
1777327471695,-9229,-17996,-10715,-438,92,468,24.93,99,131,3896,7,0,0
1777327471695,-9292,-19242,-11036,254,-266,633,24.93,99,131,3896,7,0,0
1777327471728,-7367,-19442,-11619,759,-629,1005,24.93,99,131,3896,7,0,0
1777327471728,-3133,-18687,-13720,1098,-984,1455,24.93,99,131,3896,7,0,0
1777327471794,972,-18568,-15338,1352,-1531,1857,24.93,99,131,3896,7,0,0
1777327471795,4955,-19809,-14824,1477,-2123,2127,24.93,99,131,3896,7,0,0
1777327471828,10267,-21656,-13811,1564,-2394,2177,24.93,99,131,3896,7,0,0
1777327471828,19450,-23980,-16516,1637,-2243,1862,24.93,99,131,3896,7,0,0
1777327471828,28328,-28300,-20180,1502,-2059,1237,24.93,99,131,3896,7,0,0
1777327471928,32767,-31852,-22939,1557,-1794,923,24.93,99,131,3896,7,0,0
1777327471961,32745,-30676,-23357,2030,-1572,1156,24.93,99,131,3896,7,0,0
1777327471961,32767,-22762,-20757,2421,-1592,1490,24.93,99,131,3896,7,0,0
1777327471961,30690,-14101,-13887,2270,-1761,1535,24.93,99,131,3896,7,0,0
1777327471961,19704,-6822,-7566,1653,-1808,1409,24.93,99,131,3896,7,0,0
1777327471961,12459,-415,-3544,1023,-1702,1133,24.93,99,131,3896,7,0,0
1777327472011,7958,4341,-1888,604,-1596,639,24.93,99,131,3896,7,0,0
1777327472011,5895,8036,-627,587,-1575,-127,24.93,99,131,3896,7,0,0
1777327472011,7027,10078,1494,1001,-1537,-1004,24.93,99,131,3896,7,0,0
1777327472044,7255,9184,3890,1493,-1222,-1519,24.93,99,131,3896,7,0,0
1777327472044,7212,8184,4505,1829,-738,-1424,24.93,99,131,3896,7,0,0
1777327472078,6424,8243,4667,1852,-333,-990,24.93,99,131,3896,7,0,0
1777327472144,5355,9088,5424,1444,-94,-592,24.93,99,131,3896,7,0,0
1777327472144,5320,9776,5768,480,175,-469,24.93,99,131,3896,7,0,0
1777327472144,7486,8658,3363,-754,382,-656,24.93,99,131,3896,7,0,0
1777327472178,10050,4066,1009,-1634,426,-864,24.93,99,131,3896,7,0,0
1777327472178,13852,-1397,1419,-1877,412,-800,24.93,99,131,3896,7,0,0
1777327472178,18670,-3983,4157,-1787,746,-517,24.93,99,131,3896,7,0,0
1777327472211,25385,-6338,136,-2100,1742,-724,24.93,99,131,3896,7,0,0
1777327472211,31443,-11614,-10202,-2733,2366,-1582,24.93,99,131,3896,7,0,0
1777327472377,32767,-18192,-16878,-2862,2029,-1991,24.93,99,131,3896,7,0,0
1777327472377,32766,-22013,-15783,-2283,1140,-1748,24.93,99,131,3896,7,0,0
1777327472377,31247,-21717,-8741,-1598,788,-1352,24.93,99,131,3896,7,0,0
1777327472377,27035,-19607,-4216,-1282,1253,-1182,24.93,99,131,3896,7,0,0
1777327472377,24143,-17875,-5683,-1273,1908,-1299,24.93,99,131,3896,7,0,0
1777327472377,20667,-18443,-9500,-1440,2103,-1470,24.93,99,131,3896,7,0,0
1777327472377,15831,-19310,-11103,-1637,1809,-1419,24.93,99,131,3896,7,0,0
1777327472411,10655,-20348,-10279,-1789,1328,-1060,24.93,99,131,3896,7,0,0
1777327472411,5111,-19980,-7761,-1834,926,-485,24.93,99,131,3896,7,0,0
1777327472444,1069,-18166,-5725,-1716,710,-17,24.93,99,131,3896,7,0,0
1777327472444,-2793,-16682,-4555,-1499,598,243,24.93,99,131,3896,7,0,0
1777327472511,-6452,-16090,-4152,-1211,459,356,24.93,99,131,3896,7,0,0
1777327472511,-9168,-16392,-3977,-836,250,498,24.93,99,131,3896,7,0,0
1777327472578,-9467,-15883,-4591,-154,-64,829,24.93,102,133,3903,7,0,0
1777327472578,-7001,-15368,-6729,326,-255,1002,24.93,102,133,3903,7,0,0
1777327472578,-3838,-15658,-8954,767,-599,1197,24.93,102,133,3903,7,0,0
1777327472578,-402,-16562,-10376,1019,-1074,1541,24.93,102,133,3903,7,0,0
1777327472578,3281,-18479,-10920,1090,-1581,1901,24.93,102,133,3903,7,0,0
1777327472644,8241,-19801,-11883,1018,-1814,2065,24.93,102,133,3903,7,0,0
1777327472644,15549,-20789,-13482,1143,-1808,1795,24.93,102,133,3903,7,0,0
1777327472677,26483,-24425,-17010,1297,-1405,1039,24.93,102,133,3903,7,0,0
1777327472677,30924,-29613,-19826,1646,-1027,618,24.93,102,133,3903,7,0,0
1777327472711,32767,-29639,-21924,2146,-856,1071,24.93,102,133,3903,7,0,0
1777327472711,32766,-22188,-20428,2308,-1080,1567,24.93,102,133,3903,7,0,0
1777327472711,32266,-14743,-15876,1910,-1515,1652,24.93,102,133,3903,7,0,0
1777327472777,25758,-9065,-10832,1186,-1800,1380,24.93,102,133,3903,7,0,0
1777327472777,18398,-4814,-6094,632,-1887,1024,24.93,102,133,3903,7,0,0
1777327472810,13910,-1091,-3182,387,-1788,617,24.93,102,133,3903,7,0,0
1777327472810,10375,1536,-1605,422,-1633,104,24.93,102,133,3903,7,0,0
1777327472861,7866,2933,-391,599,-1527,-449,24.93,102,133,3903,7,0,0
1777327472861,6707,3633,986,873,-1455,-990,24.93,102,133,3903,7,0,0
1777327472894,6402,3719,2538,1172,-1327,-1378,24.93,102,133,3903,7,0,0
1777327472894,5644,3385,3907,1393,-1084,-1451,24.93,102,133,3903,7,0,0
1777327472894,4560,3252,4408,1441,-759,-1177,24.93,102,133,3903,7,0,0
1777327472961,3428,3979,4738,1343,-478,-722,24.93,102,133,3903,7,0,0
1777327472961,3212,5062,5355,1054,-236,-284,24.93,102,133,3903,7,0,0
1777327472993,3944,5890,6925,533,63,-21,24.93,102,133,3903,7,0,0
1777327472994,6987,5558,6205,-281,517,-37,24.93,102,133,3903,7,0,0
1777327473094,11235,2815,4368,-1029,868,-208,24.93,102,133,3903,7,0,0
1777327473094,18687,1588,3264,-1551,1356,-269,24.93,102,133,3903,7,0,0
1777327473094,27691,-1302,-2791,-2102,2157,-662,24.93,102,133,3903,7,0,0
1777327473094,32767,-5872,-10281,-2440,2497,-1280,24.93,102,133,3903,7,0,0
1777327473094,32734,-9957,-14407,-2450,2030,-1362,24.93,102,133,3903,7,0,0
1777327473127,32680,-11943,-11679,-2084,1178,-1188,24.93,102,133,3903,7,0,0
1777327473127,30753,-11468,-5940,-1657,853,-1277,24.93,102,133,3903,7,0,0
1777327473160,27446,-12295,-1810,-1367,1202,-1614,24.93,102,133,3903,7,0,0
1777327473160,24572,-13729,-1425,-1250,1836,-1918,24.93,102,133,3903,7,0,0
1777327473227,22681,-14614,-3682,-1208,2251,-1945,24.93,102,133,3903,7,0,0
1777327473227,20351,-14315,-5169,-1256,2339,-1802,24.93,102,133,3903,7,0,0
1777327473294,17224,-13578,-6283,-1487,2239,-1637,24.93,102,133,3903,7,0,0
1777327473294,14165,-12767,-7184,-1869,1976,-1417,24.93,102,133,3903,7,0,0
1777327473294,11450,-12305,-7537,-2307,1623,-1130,24.93,102,133,3903,7,0,0
1777327473294,9433,-12159,-7638,-2706,1271,-792,24.93,102,133,3903,7,0,0
1777327473294,7822,-12266,-7891,-2926,953,-518,24.93,102,133,3903,7,0,0
1777327473360,5498,-12789,-7463,-2935,650,-256,24.93,102,133,3903,7,0,0
1777327473360,3201,-12976,-6477,-2731,388,82,24.93,102,133,3903,7,0,0
1777327473393,1582,-12208,-5352,-2414,196,420,24.93,102,133,3903,7,0,0
1777327473427,386,-10974,-4451,-2057,58,655,24.93,102,133,3903,7,0,0
1777327473427,968,-9948,-5050,-1684,-45,762,24.93,102,133,3903,7,0,0
1777327473427,1631,-10254,-5612,-1316,-244,744,24.93,102,133,3903,7,0,0
1777327473427,3060,-10641,-6496,-976,-491,841,24.93,102,133,3903,7,0,0
1777327473493,4706,-10806,-6539,-730,-789,1046,24.93,102,133,3903,7,0,0
1777327473493,10103,-9591,-7531,-566,-834,1224,24.93,102,133,3903,7,0,0
1777327473544,20578,-8401,-10050,-365,-570,1044,24.93,104,135,3883,7,0,0
1777327473544,29152,-9200,-13556,-62,-171,528,24.93,104,135,3883,7,0,0
1777327473577,32168,-11356,-14270,273,-26,437,24.93,104,135,3883,7,0,0
1777327473577,31323,-11438,-13049,115,75,841,24.93,104,135,3883,7,0,0
1777327473627,30245,-8493,-12806,-1129,64,1331,24.93,104,135,3883,7,0,0
1777327473627,30163,-7967,-13549,-1557,-32,1291,24.93,104,135,3883,7,0,0
1777327473627,25139,-9287,-11784,-2066,-705,1205,24.93,104,135,3883,7,0,0
1777327473726,22923,-9550,-9449,-1805,-948,1350,24.93,104,135,3883,7,0,0
1777327473726,19750,-9112,-6755,-1404,-1017,1476,24.93,104,135,3883,7,0,0
1777327473726,16074,-8638,-4665,-1208,-935,1503,24.93,104,135,3883,7,0,0
1777327473726,13421,-8356,-3824,-1187,-917,1514,24.93,104,135,3883,7,0,0
1777327473760,11454,-7679,-3148,-1246,-983,1592,24.93,104,135,3883,7,0,0
1777327473793,10049,-6635,-2726,-1304,-1056,1694,24.93,104,135,3883,7,0,0
1777327473860,9528,-5509,-2542,-1252,-1112,1708,24.93,104,135,3883,7,0,0
1777327473860,8794,-4758,-2216,-1113,-1124,1610,24.93,104,135,3883,7,0,0
1777327473860,8166,-4457,-1988,-947,-1034,1484,24.93,104,135,3883,7,0,0
1777327473860,8448,-4442,-2225,-730,-874,1381,24.93,104,135,3883,7,0,0
1777327473860,8412,-4889,-2123,-565,-696,1276,24.93,104,135,3883,7,0,0
1777327473893,8300,-5264,-2071,-417,-417,1231,24.93,104,135,3883,7,0,0
1777327473893,8367,-5433,-2502,-412,-63,1259,24.93,104,135,3883,7,0,0
1777327473926,8788,-5391,-3365,-593,300,1288,24.93,104,135,3883,7,0,0
1777327473926,9181,-5633,-4987,-885,662,1303,24.93,104,135,3883,7,0,0
1777327473993,9962,-5945,-6809,-1170,936,1303,24.93,104,135,3883,7,0,0
1777327473993,10294,-6342,-8449,-1419,1088,1335,24.93,104,135,3883,7,0,0
1777327473993,10089,-6559,-9230,-1644,1108,1373,24.93,104,135,3883,7,0,0
1777327474060,9941,-6726,-9967,-1863,1112,1352,24.93,104,135,3883,7,0,0
1777327474126,9454,-7215,-10637,-2088,1052,1231,24.93,104,135,3883,7,0,0
1777327474126,9056,-7809,-11265,-2289,989,1117,24.93,104,135,3883,7,0,0
1777327474126,8971,-7903,-12112,-2355,947,1029,24.93,104,135,3883,7,0,0
1777327474126,8853,-7899,-12826,-2229,905,889,24.93,104,135,3883,7,0,0
1777327474126,8519,-7995,-13135,-1887,865,730,24.93,104,135,3883,7,0,0
1777327474176,7921,-8339,-13229,-1459,858,609,24.93,104,135,3883,7,0,0
1777327474177,7532,-8425,-12860,-1076,869,550,24.93,104,135,3883,7,0,0
1777327474177,7435,-8124,-12545,-785,953,526,24.93,104,135,3883,7,0,0
1777327474210,7773,-7815,-12975,-596,1071,468,24.93,104,135,3883,7,0,0
1777327474210,8303,-8193,-13681,-518,1133,400,24.93,104,135,3883,7,0,0
1777327474243,8584,-8966,-14172,-491,1154,411,24.93,104,135,3883,7,0,0
1777327474243,8652,-9502,-14511,-475,1162,544,24.93,104,135,3883,7,0,0
1777327474310,8647,-9418,-15076,-475,1087,756,24.93,104,135,3883,7,0,0
1777327474310,8404,-8839,-15041,-511,923,974,24.93,104,135,3883,7,0,0
1777327474343,8092,-8138,-14730,-658,741,1104,24.93,104,135,3883,7,0,0
1777327474343,7659,-7650,-14202,-812,535,1151,24.93,104,135,3883,7,0,0
1777327474343,7082,-7352,-13248,-901,371,1193,24.93,104,135,3883,7,0,0
1777327474393,6643,-7142,-12451,-934,298,1222,24.93,104,135,3883,7,0,0
1777327474393,6300,-6955,-11993,-926,311,1237,24.93,104,135,3883,7,0,0
1777327474443,6175,-6642,-12125,-889,357,1225,24.93,104,135,3883,7,0,0
1777327474443,6168,-6437,-12586,-852,399,1177,24.93,104,135,3883,7,0,0
1777327474477,6425,-6379,-13387,-833,401,1107,24.93,104,135,3883,7,0,0
1777327474477,6522,-6480,-13961,-874,356,1046,24.93,104,135,3883,7,0,0
1777327474510,6808,-6433,-14252,-885,305,1006,24.93,104,135,3883,7,0,0
1777327474577,6994,-6352,-14475,-854,286,987,24.96,105,136,3893,7,0,0
1777327474577,6908,-6199,-14480,-758,282,973,24.96,105,136,3893,7,0,0
1777327474577,6645,-5923,-14490,-608,268,954,24.96,105,136,3893,7,0,0
1777327474577,6799,-5530,-14230,-490,232,912,24.96,105,136,3893,7,0,0
