timestamp_ms,ax,ay,az,gx,gy,gz,temp_c,steps_hw,steps_sw,bat_mv,bat_soc,hr_bpm,spo2_pct
1777326986839,16190,489,-3065,-104,89,-413,24.58,11,42,3891,0,0,0
1777326986839,16130,194,-2875,-40,91,-418,24.58,11,42,3891,0,0,0
1777326986839,16279,-20,-2728,0,111,-391,24.58,11,42,3891,0,0,0
1777326986905,16598,-116,-2838,10,140,-352,24.58,11,42,3891,0,0,0
1777326986905,16780,-153,-3146,-9,154,-302,24.58,11,42,3891,0,0,0
1777326986955,16598,-222,-3302,-41,148,-248,24.58,11,42,3891,0,0,0
1777326986955,16523,-149,-3405,-63,133,-185,24.58,11,42,3891,0,0,0
1777326986988,16467,11,-3443,-50,119,-141,24.58,11,42,3891,0,0,0
1777326986988,16504,127,-3415,17,99,-116,24.58,11,42,3891,0,0,0
1777326987022,16503,299,-3104,136,89,-85,24.58,11,42,3891,0,0,0
1777326987022,16477,412,-2752,269,108,-63,24.58,11,42,3891,0,0,0
1777326987022,16482,438,-2744,356,162,-63,24.58,11,42,3891,0,0,0
1777326987088,16399,217,-2972,389,169,-57,24.58,11,42,3891,0,0,0
1777326987088,16398,37,-2862,379,120,-31,24.58,11,42,3891,0,0,0
1777326987121,16200,-205,-2521,372,68,11,24.58,11,42,3891,0,0,0
1777326987121,16028,-260,-1795,389,35,80,24.58,11,42,3891,0,0,0
1777326987155,15879,-243,-1304,425,66,150,24.58,11,42,3891,0,0,0
1777326987155,16025,-25,-1216,462,114,216,24.58,11,42,3891,0,0,0
1777326987221,16146,159,-1229,490,130,278,24.58,11,42,3891,0,0,0
1777326987221,16331,501,-1274,459,139,325,24.58,11,42,3891,0,0,0
1777326987221,16467,746,-1536,371,137,333,24.58,11,42,3891,0,0,0
1777326987255,16553,863,-1453,290,111,317,24.58,11,42,3891,0,0,0
1777326987255,16688,860,-1043,294,99,320,24.58,11,42,3891,0,0,0
1777326987288,16971,998,-854,416,159,370,24.58,11,42,3891,0,0,0
1777326987288,16983,1115,-1194,442,167,389,24.58,11,42,3891,0,0,0
1777326987338,16690,1067,-1453,393,131,405,24.58,11,42,3891,0,0,0
1777326987338,16258,1106,-1366,294,69,432,24.58,11,42,3891,0,0,0
1777326987404,15479,1216,-1168,194,17,464,24.58,11,42,3891,0,0,0
1777326987404,14881,1537,-994,101,-19,476,24.58,11,42,3891,0,0,0
1777326987405,14312,1808,-773,33,-43,442,24.58,11,42,3891,0,0,0
1777326987438,14124,2156,-660,-6,-53,389,24.58,11,42,3891,0,0,0
1777326987438,13864,2337,-640,-29,-60,302,24.58,11,42,3891,0,0,0
1777326987472,13965,2366,-835,-90,-45,193,24.58,11,42,3891,0,0,0
1777326987472,13951,2222,-1032,-177,-59,90,24.58,11,42,3891,0,0,0
1777326987538,13670,2203,-967,-261,-108,18,24.58,11,42,3891,0,0,0
1777326987538,13994,2342,-799,-344,-135,-53,24.58,11,42,3891,0,0,0
1777326987571,13882,2414,-799,-439,-154,-146,24.58,11,42,3891,0,0,0
1777326987571,14123,2407,-904,-537,-155,-249,24.58,11,42,3891,0,0,0
1777326987571,14510,2307,-940,-599,-156,-355,24.58,11,42,3891,0,0,0
1777326987621,14721,2073,-895,-614,-155,-449,24.58,11,42,3891,0,0,0
1777326987621,15373,1839,-1016,-621,-131,-529,24.58,11,42,3891,0,0,0
1777326987671,16114,1682,-1223,-661,-130,-600,24.58,11,42,3891,0,0,0
1777326987671,16913,1356,-1447,-747,-175,-674,24.58,11,42,3891,0,0,0
1777326987721,17109,722,-1440,-866,-223,-730,24.58,11,42,3891,0,0,0
1777326987721,17289,547,-1716,-956,-263,-721,24.58,11,42,3891,0,0,0
1777326987771,17877,909,-1496,-919,-223,-694,24.58,11,42,3876,0,0,0
1777326987771,20253,1725,-2046,-809,-108,-697,24.58,11,42,3876,0,0,0
1777326987771,21806,2222,-3016,-733,-48,-725,24.58,11,42,3876,0,0,0
1777326987789,21581,1898,-3475,-744,-39,-836,24.58,11,42,3876,0,0,0
1777326987789,20369,450,-3766,-816,-45,-1021,24.58,11,42,3876,0,0,0
1777326987871,19095,-1366,-4215,-812,-63,-1108,24.58,11,42,3876,0,0,0
1777326987871,18625,-2483,-4271,-658,-120,-1013,24.58,11,42,3876,0,0,0
1777326987937,17283,-3312,-3821,-368,-196,-814,24.58,11,42,3876,0,0,0
1777326987937,15797,-3282,-2769,-24,-237,-571,24.58,11,42,3876,0,0,0
1777326987937,15228,-2883,-1731,320,-153,-371,24.58,11,42,3876,0,0,0
1777326987937,15578,-2202,-1599,610,50,-231,24.58,11,42,3876,0,0,0
1777326987937,15941,-1767,-2146,825,243,-156,24.58,11,42,3876,0,0,0
1777326987987,16281,-1845,-2884,965,384,-79,24.58,11,42,3876,0,0,0
1777326987987,16594,-1936,-3564,993,486,64,24.58,11,42,3876,0,0,0
1777326988038,16824,-1753,-4462,945,542,252,24.58,11,42,3876,0,0,0
1777326988038,16535,-1457,-5250,840,524,436,24.58,11,42,3876,0,0,0
1777326988088,15930,-1097,-5848,698,430,593,24.58,11,42,3876,0,0,0
1777326988088,15570,-894,-6176,624,303,731,24.58,11,42,3876,0,0,0
1777326988137,15037,-371,-5626,526,152,829,24.58,11,42,3876,0,0,0
1777326988137,15035,114,-4900,514,33,888,24.58,11,42,3876,0,0,0
1777326988137,14946,541,-4049,574,-24,932,24.58,11,42,3876,0,0,0
1777326988170,14936,870,-3292,686,9,940,24.58,11,42,3876,0,0,0
1777326988170,15025,993,-3102,811,89,925,24.58,11,42,3876,0,0,0
1777326988204,15445,990,-3302,896,158,929,24.58,11,42,3876,0,0,0
1777326988204,15804,1084,-3374,910,168,960,24.58,11,42,3876,0,0,0
1777326988237,16145,1435,-3204,856,141,992,24.58,11,42,3876,0,0,0
1777326988237,16144,1724,-2840,756,111,999,24.58,11,42,3876,0,0,0
1777326988289,16833,2276,-2438,647,128,979,24.58,11,42,3876,0,0,0
1777326988289,18343,3041,-2294,552,164,934,24.58,11,42,3876,0,0,0
1777326988289,19508,3545,-2270,480,202,890,24.58,11,42,3876,0,0,0
1777326988388,20019,3852,-2231,377,237,825,24.58,11,42,3876,0,0,0
1777326988388,20373,3915,-2331,213,275,715,24.58,11,42,3876,0,0,0
1777326988388,21095,3990,-2697,10,297,617,24.58,11,42,3876,0,0,0
1777326988388,22393,4468,-3083,-170,262,587,24.58,11,42,3876,0,0,0
1777326988438,20424,5187,-2848,-484,165,532,24.58,11,42,3876,0,0,0
1777326988438,18229,5497,-2706,-694,97,441,24.58,11,42,3876,0,0,0
1777326988470,16085,5617,-2128,-784,-7,252,24.58,11,42,3876,0,0,0
1777326988470,14190,5035,-1445,-723,-73,-56,24.58,11,42,3876,0,0,0
1777326988471,13106,3857,-873,-474,-87,-431,24.58,11,42,3876,0,0,0
1777326988504,13364,2535,-698,-71,-77,-683,24.58,11,42,3876,0,0,0
1777326988504,13966,1300,-73,325,-69,-694,24.58,11,42,3876,0,0,0
1777326988571,13353,617,760,546,38,-470,24.58,11,42,3876,0,0,0
1777326988571,13008,995,493,447,266,-142,24.58,11,42,3876,0,0,0
1777326988605,13493,2121,-1051,3,474,72,24.58,11,42,3876,0,0,0
1777326988605,13323,2870,-3073,-588,473,103,24.58,11,42,3876,0,0,0
1777326988638,12769,3047,-3979,-1148,271,43,24.58,11,42,3876,0,0,0
1777326988638,11678,2988,-3268,-1529,75,-66,24.58,11,42,3876,0,0,0
1777326988638,11909,2838,-3962,-1686,-82,-206,24.58,11,42,3876,0,0,0
1777326988689,12069,2488,-3739,-1665,-191,-390,24.58,11,42,3876,0,0,0
1777326988689,12045,2040,-3487,-1424,-269,-571,24.58,11,42,3876,0,0,0
1777326988788,12128,1691,-2636,-1083,-304,-699,24.58,11,42,3887,0,0,0
1777326988788,12793,1261,-2326,-788,-244,-813,24.58,11,42,3887,0,0,0
1777326988788,13840,872,-2543,-568,-190,-907,24.58,11,42,3887,0,0,0
1777326988788,14380,483,-2210,-373,-216,-969,24.58,11,42,3887,0,0,0
1777326988821,14360,-166,-1884,-242,-221,-995,24.58,11,42,3887,0,0,0
1777326988821,14585,-822,-1827,-191,-234,-986,24.58,11,42,3887,0,0,0
1777326988821,14800,-1358,-1790,-205,-277,-928,24.58,11,42,3887,0,0,0
1777326988887,15353,-1401,-1706,-255,-341,-833,24.58,11,42,3887,0,0,0
1777326988887,16580,-1137,-1449,-312,-393,-751,24.58,11,42,3887,0,0,0
1777326988921,17981,-930,-1244,-329,-385,-702,24.58,11,42,3887,0,0,0
1777326988921,18863,-1019,-1200,-275,-333,-667,24.58,11,42,3887,0,0,0
1777326988955,19347,-1454,-1512,-211,-267,-601,24.58,11,42,3887,0,0,0
1777326988955,20580,-1568,-2226,-192,-192,-472,24.58,11,42,3887,0,0,0
1777326989020,23141,-451,-3058,-225,-117,-269,24.58,11,42,3887,0,0,0
1777326989020,24431,684,-3522,-295,-91,-146,24.58,11,42,3887,0,0,0
1777326989020,24312,561,-3589,-347,-69,-170,24.58,11,42,3887,0,0,0
1777326989071,22604,-675,-3617,-326,-18,-209,24.58,11,42,3887,0,0,0
1777326989071,20213,-2159,-3450,-208,17,-158,24.58,11,42,3887,0,0,0
1777326989104,18593,-2884,-3435,18,39,-22,24.58,11,42,3887,0,0,0
1777326989104,17474,-2879,-3183,359,34,211,24.58,11,42,3887,0,0,0
1777326989137,16611,-2087,-2397,748,36,465,24.58,11,42,3887,0,0,0
1777326989137,15969,-1080,-1649,1086,154,594,24.58,11,42,3887,0,0,0
1777326989189,15770,-758,-1872,1294,320,592,24.58,11,42,3887,0,0,0
1777326989189,15452,-1161,-2485,1356,436,598,24.58,11,42,3887,0,0,0
1777326989189,15566,-1331,-3213,1294,489,679,24.58,11,42,3887,0,0,0
1777326989222,15322,-1270,-3802,1116,462,760,24.58,11,42,3887,0,0,0
1777326989222,14897,-1198,-3968,917,360,835,24.58,11,42,3887,0,0,0
1777326989272,14712,-924,-3963,737,283,916,24.58,11,42,3887,0,0,0
1777326989272,14823,-648,-3870,702,243,994,24.58,11,42,3887,0,0,0
1777326989337,15115,-73,-3832,689,218,1066,24.58,11,42,3887,0,0,0
1777326989337,15063,440,-3799,706,218,1099,24.58,11,42,3887,0,0,0
1777326989370,15049,918,-4049,727,230,1096,24.58,11,42,3887,0,0,0
1777326989371,15099,1362,-4104,720,217,1076,24.58,11,42,3887,0,0,0
1777326989371,15533,1846,-4493,658,192,1026,24.58,11,42,3887,0,0,0
1777326989403,15336,2436,-4603,519,121,937,24.58,11,42,3887,0,0,0
1777326989404,15233,2543,-4473,356,39,800,24.58,11,42,3887,0,0,0
1777326989470,15754,2539,-4090,237,-47,709,24.58,11,42,3887,0,0,0
1777326989470,16640,2911,-3856,205,-65,706,24.58,11,42,3887,0,0,0
1777326989504,17318,3483,-3680,239,-61,731,24.58,11,42,3887,0,0,0
1777326989504,18051,4228,-3412,284,-60,701,24.58,11,42,3887,0,0,0
1777326989537,17485,4612,-2893,257,-26,532,24.58,11,42,3887,0,0,0
1777326989537,17403,4804,-2621,219,-44,377,24.58,11,42,3887,0,0,0
1777326989537,19728,5965,-2288,187,-66,224,24.58,11,42,3887,0,0,0
1777326989604,20932,6260,-2033,71,-78,29,24.58,11,42,3887,0,0,0
1777326989604,19297,5311,-1376,-223,-15,-218,24.58,11,42,3887,0,0,0
1777326989639,16729,3579,-1332,-636,102,-452,24.58,11,42,3887,0,0,0
1777326989639,15269,2309,-2176,-910,153,-566,24.58,11,42,3887,0,0,0
1777326989688,14509,2107,-2049,-863,25,-605,24.58,11,42,3887,0,0,0
1777326989688,14785,2240,-791,-568,-98,-673,24.58,11,42,3887,0,0,0
1777326989720,15179,2303,-65,-259,-40,-772,24.58,11,42,3893,0,0,0
1777326989720,15727,1847,-117,-57,102,-845,24.58,11,42,3893,0,0,0
1777326989720,15311,1381,-797,-42,247,-821,24.58,11,42,3893,0,0,0
1777326989787,14518,1344,-1727,-202,339,-697,24.58,11,42,3893,0,0,0
1777326989787,13589,1599,-2940,-531,330,-585,24.58,11,42,3893,0,0,0
1777326989820,12811,2039,-3932,-987,189,-558,24.58,11,42,3893,0,0,0
1777326989820,11499,2303,-4187,-1466,-3,-649,24.58,11,42,3893,0,0,0
1777326989853,12745,1748,-5029,-1814,-203,-807,24.58,11,42,3893,0,0,0
1777326989853,12187,952,-4573,-2052,-398,-912,24.58,11,42,3893,0,0,0
1777326989904,12575,470,-4250,-2107,-528,-906,24.58,11,42,3893,0,0,0
1777326989904,12949,379,-3847,-2029,-571,-870,24.58,11,42,3893,0,0,0
1777326989904,13146,426,-3507,-1853,-555,-844,24.58,11,42,3893,0,0,0
1777326989954,13959,574,-3401,-1650,-490,-856,24.58,11,42,3893,0,0,0
1777326989954,14394,377,-3327,-1437,-411,-900,24.58,11,42,3893,0,0,0
1777326990003,14763,76,-3290,-1211,-320,-918,24.58,11,42,3893,0,0,0
1777326990003,14839,-255,-3328,-985,-240,-926,24.58,11,42,3893,0,0,0
1777326990036,15463,-496,-3423,-767,-188,-942,24.58,11,42,3893,0,0,0
1777326990037,16700,-682,-3559,-533,-167,-958,24.58,11,42,3893,0,0,0
1777326990103,17450,-960,-3338,-279,-182,-971,24.58,11,42,3893,0,0,0
1777326990103,18517,-1423,-3119,-47,-176,-964,24.58,11,42,3893,0,0,0
1777326990103,19465,-2007,-2919,134,-136,-879,24.58,11,42,3893,0,0,0
1777326990136,20452,-2319,-3034,236,-55,-710,24.58,11,42,3893,0,0,0
1777326990136,23809,-1084,-3985,261,88,-452,24.58,11,42,3893,0,0,0
1777326990169,26786,434,-5263,252,166,-194,24.58,11,42,3893,0,0,0
1777326990169,26603,554,-5960,184,131,-94,24.58,11,42,3893,0,0,0
1777326990219,24662,-801,-6087,40,59,-96,24.58,11,42,3893,0,0,0
1777326990219,22174,-2405,-5329,-43,-24,15,24.58,11,42,3893,0,0,0
1777326990286,19916,-3247,-4986,61,-112,278,24.58,11,42,3893,0,0,0
1777326990286,18807,-2994,-4166,376,-239,632,24.58,11,42,3893,0,0,0
1777326990286,17795,-2072,-3062,770,-276,999,24.58,11,42,3893,0,0,0
1777326990320,16442,-699,-2117,1105,-179,1244,24.58,11,42,3893,0,0,0
1777326990320,15683,378,-2236,1287,35,1326,24.58,11,42,3893,0,0,0
1777326990353,15206,1091,-2819,1362,204,1313,24.58,11,42,3893,0,0,0
1777326990353,14800,1395,-3496,1363,309,1272,24.58,11,42,3893,0,0,0
1777326990404,14544,1468,-4138,1305,341,1225,24.58,11,42,3893,0,0,0
1777326990404,14458,1471,-4549,1223,329,1222,24.58,11,42,3893,0,0,0
1777326990436,14322,1572,-4880,1129,298,1237,24.58,11,42,3893,0,0,0
1777326990436,14059,1912,-5009,1077,281,1225,24.58,11,42,3893,0,0,0
1777326990436,14029,2038,-4989,1061,256,1195,24.58,11,42,3893,0,0,0
1777326990503,13894,2169,-4681,1043,261,1157,24.58,11,42,3893,0,0,0
1777326990503,13862,2263,-4617,1033,290,1127,24.58,11,42,3893,0,0,0
1777326990602,14393,2557,-4625,993,337,1102,24.58,11,42,3893,0,0,0
1777326990603,14908,2688,-5006,953,354,1066,24.58,11,42,3893,0,0,0
1777326990603,15064,3095,-5002,895,322,1038,24.58,11,42,3893,0,0,0
1777326990603,15483,3595,-5241,790,291,990,24.58,11,42,3893,0,0,0
1777326990636,16989,4337,-4881,596,190,847,24.58,11,42,3893,0,0,0
1777326990636,17877,4765,-4405,413,174,707,24.58,11,42,3893,0,0,0
1777326990636,17603,4592,-4281,205,190,543,24.58,11,42,3893,0,0,0
1777326990669,16906,4196,-4331,38,178,417,24.58,11,42,3893,0,0,0
1777326990669,16437,3895,-4519,-93,133,307,24.58,11,42,3893,0,0,0
1777326990736,17164,4518,-4258,-181,19,191,24.58,11,46,3893,0,0,0
1777326990736,18425,5745,-3467,-240,-75,62,24.58,11,46,3893,0,0,0
1777326990754,19098,6473,-2834,-295,-94,-104,24.58,11,46,3893,0,0,0
1777326990754,18962,6860,-2289,-402,-65,-356,24.58,11,46,3893,0,0,0
1777326990819,17048,5776,-1929,-532,6,-722,24.58,11,46,3893,0,0,0
1777326990819,14871,4106,-2067,-584,61,-1035,24.58,11,46,3893,0,0,0
1777326990819,14133,2854,-2349,-516,33,-1259,24.58,11,46,3893,0,0,0
1777326990852,14181,1867,-2241,-337,-83,-1421,24.58,11,46,3893,0,0,0
1777326990852,14604,873,-1778,-108,-214,-1525,24.58,11,46,3893,0,0,0
1777326990919,15032,180,-875,91,-294,-1534,24.58,11,46,3893,0,0,0
1777326990919,15030,-245,-21,196,-275,-1408,24.58,11,46,3893,0,0,0
1777326990952,14687,-330,499,202,-138,-1206,24.58,11,46,3893,0,0,0
1777326990952,13750,4,528,112,81,-976,24.58,11,46,3893,0,0,0
1777326990986,13577,816,-867,-99,259,-801,24.58,11,46,3893,0,0,0
1777326990986,13774,1311,-2342,-433,268,-768,24.58,11,46,3893,0,0,0
1777326990986,13488,1128,-3303,-835,156,-811,24.58,11,46,3893,0,0,0
1777326991052,13225,982,-3326,-1195,35,-836,24.58,11,46,3893,0,0,0
1777326991052,13584,895,-3848,-1315,-52,-856,24.58,11,46,3893,0,0,0
1777326991119,14229,1178,-4078,-1330,-153,-913,24.58,11,46,3893,0,0,0
1777326991119,14841,1197,-3787,-1196,-256,-1025,24.58,11,46,3893,0,0,0
1777326991119,15155,761,-3358,-980,-295,-1149,24.58,11,46,3893,0,0,0
1777326991119,15791,127,-3054,-756,-278,-1214,24.58,11,46,3893,0,0,0
1777326991186,16235,-482,-3076,-582,-253,-1204,24.58,11,46,3893,0,0,0
1777326991186,16606,-978,-3217,-476,-267,-1145,24.58,11,46,3893,0,0,0
1777326991186,16813,-1264,-3051,-438,-298,-1068,24.58,11,46,3893,0,0,0
1777326991219,17259,-1270,-2907,-392,-325,-987,24.58,11,46,3893,0,0,0
1777326991252,18414,-1240,-2589,-309,-344,-914,24.58,11,46,3893,0,0,0
1777326991252,19467,-1418,-2178,-188,-301,-845,24.58,11,46,3893,0,0,0
1777326991252,20273,-1994,-2059,-37,-211,-738,24.58,11,46,3893,0,0,0
1777326991319,20834,-2415,-2343,85,-93,-543,24.58,11,46,3893,0,0,0
1777326991319,23076,-1677,-3200,138,45,-232,24.58,11,46,3893,0,0,0
1777326991352,24698,-572,-4299,129,94,79,24.58,11,46,3893,0,0,0
1777326991352,24754,29,-4685,63,41,310,24.58,11,46,3893,0,0,0
1777326991352,23274,-48,-4379,-3,-29,418,24.58,11,46,3893,0,0,0
1777326991386,20798,-796,-3695,49,-22,511,24.58,11,46,3893,0,0,0
1777326991386,19091,-1164,-3407,270,36,679,24.58,11,46,3893,0,0,0
1777326991452,18154,-1074,-3054,632,88,872,24.58,11,46,3893,0,0,0
1777326991452,17214,-914,-2677,1001,183,1041,24.58,11,46,3893,0,0,0
1777326991485,16995,-451,-2685,1278,313,1199,24.58,11,46,3893,0,0,0
1777326991485,17164,216,-2859,1438,438,1346,24.58,11,46,3893,0,0,0
1777326991535,17314,810,-3146,1509,575,1465,24.58,11,46,3893,0,0,0
1777326991535,16758,1428,-3711,1581,691,1585,24.58,11,46,3893,0,0,0
1777326991535,16823,1758,-4988,1532,694,1642,24.58,11,46,3893,0,0,0
1777326991585,16485,1781,-5671,1296,581,1700,24.58,11,46,3893,0,0,0
1777326991585,15903,2427,-5106,1015,363,1728,24.58,11,46,3893,0,0,0
1777326991636,15832,2481,-4271,847,208,1733,24.58,11,46,3893,0,0,0
1777326991636,14762,2703,-3389,746,257,1695,24.58,11,46,3893,0,0,0
1777326991669,14499,3192,-3630,836,351,1631,24.58,11,46,3893,0,0,0
1777326991670,14904,3703,-4291,939,400,1534,24.58,11,46,3893,0,0,0
1777326991719,14222,3783,-4458,936,295,1342,24.58,11,46,3893,0,0,0
1777326991719,14138,3911,-4456,872,251,1286,24.58,11,46,3893,0,0,0
1777326991720,14668,4209,-4209,705,178,1153,24.59,11,48,3893,0,0,0
1777326991770,14290,4151,-3296,450,83,924,24.59,11,48,3893,0,0,0
1777326991770,14610,4372,-3097,246,70,766,24.59,11,48,3893,0,0,0
1777326991803,15116,4649,-3013,111,76,602,24.59,11,48,3893,0,0,0
1777326991803,16043,4979,-2792,46,57,444,24.59,11,48,3893,0,0,0
1777326991903,16204,5177,-2267,-8,42,262,24.59,11,48,3893,0,0,0
1777326991903,15834,4991,-2023,-109,82,30,24.59,11,48,3893,0,0,0
1777326991903,17285,5301,-2215,-243,131,-179,24.59,11,48,3893,0,0,0
1777326991903,19687,6054,-2537,-351,115,-333,24.59,11,48,3893,0,0,0
1777326991903,20723,6640,-2071,-468,67,-512,24.59,11,48,3893,0,0,0
1777326991936,18816,6113,-1911,-717,96,-771,24.59,11,48,3893,0,0,0
1777326991936,16257,4733,-2540,-1017,133,-1112,24.59,11,48,3893,0,0,0
1777326991969,14573,3429,-3348,-1148,-2,-1404,24.59,11,48,3893,0,0,0
1777326991969,14070,2673,-2547,-1029,-252,-1638,24.59,11,48,3893,0,0,0
1777326992036,14694,1983,-1022,-688,-404,-1842,24.59,11,48,3893,0,0,0
1777326992036,15706,967,210,-297,-370,-1964,24.59,11,48,3893,0,0,0
1777326992069,16414,-20,618,22,-174,-1955,24.59,11,48,3893,0,0,0
1777326992069,16994,-497,-377,189,75,-1746,24.59,11,48,3893,0,0,0
1777326992069,17046,-334,-1474,121,226,-1426,24.59,11,48,3893,0,0,0
1777326992119,15845,-140,-2880,-204,298,-1157,24.59,11,48,3893,0,0,0
1777326992119,14970,585,-4322,-685,227,-969,24.59,11,48,3893,0,0,0
1777326992152,14872,1309,-4815,-1141,21,-895,24.59,11,48,3893,0,0,0
1777326992152,14322,1463,-4212,-1397,-144,-916,24.59,11,48,3893,0,0,0
1777326992219,14242,1415,-4349,-1521,-263,-960,24.59,11,48,3893,0,0,0
1777326992219,14590,1267,-4257,-1474,-333,-1036,24.59,11,48,3893,0,0,0
1777326992253,14918,705,-3807,-1303,-424,-1128,24.59,11,48,3893,0,0,0
1777326992253,14806,-80,-2957,-1125,-470,-1171,24.59,11,48,3893,0,0,0
1777326992285,15377,-759,-2412,-1015,-446,-1178,24.59,11,48,3893,0,0,0
1777326992285,15920,-1495,-2271,-940,-414,-1127,24.59,11,48,3893,0,0,0
1777326992285,16022,-2046,-1933,-859,-386,-999,24.59,11,48,3893,0,0,0
1777326992386,16320,-2280,-1695,-792,-355,-836,24.59,11,48,3893,0,0,0
1777326992386,16771,-2313,-1586,-731,-319,-697,24.59,11,48,3893,0,0,0
1777326992386,17408,-2114,-1493,-662,-268,-569,24.59,11,48,3893,0,0,0
1777326992386,18733,-1763,-1701,-574,-189,-453,24.59,11,48,3893,0,0,0
1777326992419,20132,-1560,-2165,-475,-111,-344,24.59,11,48,3893,0,0,0
1777326992419,20487,-1796,-2671,-356,-54,-234,24.59,11,48,3893,0,0,0
1777326992419,21243,-1841,-3469,-242,4,-69,24.59,11,48,3893,0,0,0
1777326992485,23011,-1063,-4439,-149,29,163,24.59,11,48,3893,0,0,0
1777326992485,24068,-253,-4901,-64,-34,340,24.59,11,48,3893,0,0,0
1777326992519,23737,-291,-4600,4,-103,429,24.59,11,48,3893,0,0,0
1777326992519,22490,-1025,-3940,102,-122,493,24.59,11,48,3893,0,0,0
1777326992552,21294,-1693,-3496,290,-91,645,24.59,11,48,3893,0,0,0
1777326992552,20002,-2056,-2943,593,-41,867,24.59,11,48,3893,0,0,0
1777326992619,19480,-1600,-2560,978,48,1144,24.59,11,48,3893,0,0,0
1777326992619,18816,-916,-2345,1343,168,1392,24.59,11,48,3893,0,0,0
1777326992619,18189,-32,-2604,1571,320,1555,24.59,11,48,3893,0,0,0
1777326992653,18278,768,-3126,1643,457,1665,24.59,11,48,3893,0,0,0
1777326992653,18349,1320,-3758,1644,530,1738,24.59,11,48,3893,0,0,0
1777326992703,18265,1560,-4210,1606,506,1799,24.59,11,48,3893,0,0,0
1777326992703,17394,1530,-4173,1486,457,1871,24.59,11,48,3893,0,0,0
1777326992753,16655,1747,-4304,1284,434,1956,24.58,19,50,3890,0,0,0
1777326992753,15974,2471,-4389,1106,381,2011,24.58,19,50,3890,0,0,0
1777326992803,15350,2828,-4822,943,275,1999,24.58,19,50,3890,0,0,0
1777326992803,14733,3272,-4546,828,164,1912,24.58,19,50,3890,0,0,0
1777326992803,14215,3491,-3844,815,96,1800,24.58,19,50,3890,0,0,0
1777326992836,13544,3592,-3074,864,125,1680,24.58,19,50,3890,0,0,0
1777326992836,13165,3905,-2922,924,218,1540,24.58,19,50,3890,0,0,0
1777326992869,13034,4063,-3465,916,324,1254,24.58,19,50,3890,0,0,0
1777326992869,13072,4072,-3753,805,285,1037,24.58,19,50,3890,0,0,0
1777326992936,13736,4344,-3534,594,208,825,24.58,19,50,3890,0,0,0
1777326992936,14797,4656,-3334,345,167,611,24.58,19,50,3890,0,0,0
1777326992969,16045,4879,-3196,96,146,397,24.58,19,50,3890,0,0,0
1777326992969,16476,4674,-3130,-127,126,172,24.58,19,50,3890,0,0,0
1777326992969,16323,3848,-3374,-325,121,-24,24.58,19,50,3890,0,0,0
1777326993002,15808,3312,-3734,-445,59,-126,24.58,19,50,3890,0,0,0
1777326993002,16976,4028,-3508,-485,-49,-196,24.58,19,50,3890,0,0,0
1777326993069,18952,5047,-2914,-501,-145,-359,24.58,19,50,3890,0,0,0
1777326993069,20339,5312,-2367,-492,-203,-588,24.58,19,50,3890,0,0,0
1777326993103,20534,4908,-1482,-519,-205,-811,24.58,19,50,3890,0,0,0
1777326993103,19410,3972,-1314,-647,-104,-1063,24.58,19,50,3890,0,0,0
1777326993170,17076,2336,-1728,-776,-66,-1307,24.58,19,50,3890,0,0,0
1777326993170,15976,888,-2336,-830,-125,-1452,24.58,19,50,3890,0,0,0
1777326993170,15554,-57,-2152,-783,-314,-1508,24.58,19,50,3890,0,0,0
1777326993203,15655,-313,-1163,-672,-459,-1486,24.58,19,50,3890,0,0,0
1777326993203,15790,-224,129,-508,-481,-1432,24.58,19,50,3890,0,0,0
1777326993236,15868,60,553,-366,-361,-1370,24.58,19,50,3890,0,0,0
1777326993236,15074,61,430,-325,-203,-1303,24.58,19,50,3890,0,0,0
1777326993303,14267,98,-397,-436,-57,-1230,24.58,19,50,3890,0,0,0
1777326993303,13800,403,-1523,-674,-9,-1181,24.58,19,50,3890,0,0,0
1777326993336,13910,246,-2232,-976,-61,-1189,24.58,19,50,3890,0,0,0
1777326993336,13210,-110,-2405,-1239,-138,-1180,24.58,19,50,3890,0,0,0
1777326993336,13851,82,-2653,-1451,-160,-1125,24.58,19,50,3890,0,0,0
1777326993436,14785,331,-3256,-1549,-154,-1123,24.58,19,50,3890,0,0,0
1777326993469,15060,552,-3197,-1583,-154,-1174,24.58,19,50,3890,0,0,0
1777326993469,15864,271,-3520,-1500,-120,-1264,24.58,19,50,3890,0,0,0
1777326993469,16882,-314,-3863,-1358,-105,-1343,24.58,19,50,3890,0,0,0
1777326993469,17478,-1394,-4013,-1190,-125,-1339,24.58,19,50,3890,0,0,0
1777326993469,17564,-2136,-3788,-1045,-174,-1250,24.58,19,50,3890,0,0,0
1777326993502,17525,-2568,-3398,-891,-209,-1147,24.58,19,50,3890,0,0,0
1777326993502,17835,-2712,-2917,-690,-225,-1038,24.58,19,50,3890,0,0,0
1777326993502,18484,-2755,-2813,-487,-230,-940,24.58,19,50,3890,0,0,0
1777326993569,19363,-2919,-2844,-304,-228,-851,24.58,19,50,3890,0,0,0
1777326993569,19953,-3351,-2497,-140,-226,-741,24.58,19,50,3890,0,0,0
1777326993602,19436,-4048,-2307,40,-170,-573,24.58,19,50,3890,0,0,0
1777326993602,19594,-4229,-2624,176,-82,-322,24.58,19,50,3890,0,0,0
1777326993635,21638,-3148,-3257,286,0,-5,24.58,19,50,3890,0,0,0
1777326993635,23914,-1672,-3569,394,5,263,24.58,19,50,3890,0,0,0
1777326993702,24637,-956,-3847,433,46,426,24.58,19,50,3890,0,0,0
1777326993702,23438,-1209,-4031,446,64,498,24.58,19,50,3890,0,0,0
1777326993702,21216,-2221,-3932,496,80,605,24.59,21,52,3896,0,0,0
1777326993735,19901,-2565,-4055,675,94,834,24.59,21,52,3896,0,0,0
1777326993735,19210,-2097,-4041,973,73,1154,24.59,21,52,3896,0,0,0
1777326993768,18400,-1134,-3609,1281,72,1444,24.59,21,52,3896,0,0,0
1777326993768,18276,216,-3335,1481,174,1630,24.59,21,52,3896,0,0,0
1777326993835,18815,1171,-3726,1566,314,1710,24.59,21,52,3896,0,0,0
1777326993835,18477,1512,-4387,1540,386,1760,24.59,21,52,3896,0,0,0
1777326993868,17563,1672,-4892,1414,397,1814,24.59,21,52,3896,0,0,0
1777326993868,16926,1787,-5333,1240,375,1869,24.59,21,52,3896,0,0,0
1777326993868,16959,2085,-5814,1099,323,1913,24.59,21,52,3896,0,0,0
1777326993919,17220,2390,-5881,953,203,1940,24.59,21,52,3896,0,0,0
1777326993919,16948,2276,-5272,879,54,1947,24.59,21,52,3896,0,0,0
1777326993951,16394,2092,-4735,824,-22,1975,24.59,21,52,3896,0,0,0
1777326993951,15644,2690,-4136,866,-34,2030,24.59,21,52,3896,0,0,0
1777326994068,15616,3357,-4099,925,10,1982,24.59,21,52,3896,0,0,0
1777326994068,15396,4084,-4018,989,17,1853,24.59,21,52,3896,0,0,0
1777326994068,14783,4502,-3498,999,39,1648,24.59,21,52,3896,0,0,0
1777326994068,14041,4578,-3219,923,120,1380,24.59,21,52,3896,0,0,0
1777326994068,13448,4204,-3236,801,195,1099,24.59,21,52,3896,0,0,0
1777326994134,13107,3873,-3402,677,221,867,24.59,21,52,3896,0,0,0
1777326994134,13437,4070,-3553,529,204,665,24.59,21,52,3896,0,0,0
1777326994134,14302,4612,-3596,363,141,421,24.59,21,52,3896,0,0,0
1777326994134,15192,4957,-3230,190,61,117,24.59,21,52,3896,0,0,0
1777326994201,15404,4377,-3102,9,9,-223,24.59,21,52,3896,0,0,0
1777326994201,15364,3586,-2817,-175,-9,-479,24.59,21,52,3896,0,0,0
1777326994284,17345,3897,-2883,-329,-1,-626,24.59,21,52,3896,0,0,0
1777326994284,19212,4853,-2875,-453,-14,-768,24.59,21,52,3896,0,0,0
1777326994284,19914,5273,-2610,-615,-22,-988,24.59,21,52,3896,0,0,0
1777326994284,18768,4716,-2720,-861,17,-1301,24.59,21,52,3896,0,0,0
1777326994284,16667,2780,-3147,-1148,43,-1647,24.59,21,52,3896,0,0,0
1777326994334,15675,948,-3687,-1328,-31,-1841,24.59,21,52,3896,0,0,0
1777326994334,15420,-162,-3319,-1353,-170,-1924,24.59,21,52,3896,0,0,0
1777326994368,15818,-826,-2918,-1184,-271,-1968,24.59,21,52,3896,0,0,0
1777326994368,16209,-1116,-2121,-857,-344,-1956,24.59,21,52,3896,0,0,0
1777326994417,16674,-1410,-1268,-527,-308,-1882,24.59,21,52,3896,0,0,0
1777326994418,16474,-1373,-1430,-358,-163,-1719,24.59,21,52,3896,0,0,0
1777326994418,16930,-1023,-2012,-400,-7,-1513,24.59,21,52,3896,0,0,0
1777326994518,16629,-821,-2950,-599,88,-1324,24.59,21,52,3896,0,0,0
1777326994518,16371,-657,-3826,-901,95,-1120,24.59,21,52,3896,0,0,0
1777326994518,15710,-485,-4454,-1236,20,-946,24.59,21,52,3896,0,0,0
1777326994518,15228,-35,-4371,-1502,-67,-827,24.59,21,52,3896,0,0,0
1777326994551,15375,258,-4892,-1691,-190,-817,24.59,21,52,3896,0,0,0
1777326994584,15023,151,-4715,-1732,-309,-862,24.59,21,52,3896,0,0,0
1777326994584,15099,-69,-4279,-1589,-403,-940,24.59,21,52,3896,0,0,0
1777326994584,15401,-714,-3480,-1332,-453,-1005,24.59,21,52,3896,0,0,0
1777326994585,15499,-1429,-2943,-1053,-424,-1027,24.59,21,52,3896,0,0,0
1777326994653,15720,-2017,-2775,-779,-384,-978,24.59,21,52,3896,0,0,0
1777326994653,16066,-2368,-2723,-551,-341,-875,24.59,21,52,3896,0,0,0
1777326994701,16311,-2353,-2386,-389,-296,-763,24.59,21,52,3896,0,0,0
1777326994734,16566,-2384,-2338,-287,-232,-677,24.59,21,52,3896,0,0,0
1777326994734,17294,-2172,-2590,-229,-192,-589,24.59,21,52,3896,0,0,0
1777326994734,18212,-2127,-2822,-201,-176,-525,24.58,21,53,3898,0,0,0
1777326994784,18838,-2278,-2908,-172,-167,-461,24.58,21,53,3898,0,0,0
1777326994784,19442,-2379,-2876,-119,-113,-370,24.58,21,53,3898,0,0,0
1777326994784,20022,-2600,-3139,-36,5,-242,24.58,21,53,3898,0,0,0
1777326994818,21846,-1981,-4413,56,186,-21,24.58,21,53,3898,0,0,0
1777326994818,23635,-939,-5804,156,227,224,24.58,21,53,3898,0,0,0
1777326994851,23370,-507,-6351,165,172,383,24.58,21,53,3898,0,0,0
1777326994851,21685,-684,-6221,110,113,445,24.58,21,53,3898,0,0,0
1777326994967,20139,-1104,-6160,171,66,495,24.58,21,53,3898,0,0,0
1777326995000,18955,-1550,-5986,399,-14,598,24.58,21,53,3898,0,0,0
1777326995000,17763,-1929,-5109,768,-99,723,24.58,21,53,3898,0,0,0
1777326995000,17545,-1904,-3732,1150,-81,900,24.58,21,53,3898,0,0,0
1777326995000,17238,-1802,-3221,1433,84,1095,24.58,21,53,3898,0,0,0
1777326995000,17988,-1049,-3437,1628,274,1298,24.58,21,53,3898,0,0,0
1777326995001,18429,-388,-4027,1764,409,1437,24.58,21,53,3898,0,0,0
1777326995034,18013,-121,-4559,1762,511,1573,24.58,21,53,3898,0,0,0
1777326995034,17655,296,-5359,1633,565,1713,24.58,21,53,3898,0,0,0
1777326995134,17830,984,-6229,1433,540,1839,24.58,21,53,3898,0,0,0
1777326995134,17522,1780,-6690,1131,335,1916,24.58,21,53,3898,0,0,0
1777326995134,16396,1853,-6318,892,170,1899,24.58,21,53,3898,0,0,0
1777326995134,15311,2050,-5769,701,64,1873,24.58,21,53,3898,0,0,0
1777326995134,15025,2547,-5567,616,13,1822,24.58,21,53,3898,0,0,0
1777326995184,14797,3069,-5321,661,-41,1726,24.58,21,53,3898,0,0,0
1777326995184,13993,3443,-4950,773,-79,1576,24.58,21,53,3898,0,0,0
1777326995217,13541,3782,-4781,859,-69,1381,24.58,21,53,3898,0,0,0
1777326995217,13344,3896,-4861,907,-68,1147,24.58,21,53,3898,0,0,0
1777326995284,13761,3836,-4673,924,-85,930,24.58,21,53,3898,0,0,0
1777326995284,14077,3464,-4365,904,-109,743,24.58,21,53,3898,0,0,0
1777326995317,14359,3298,-3889,853,-98,639,24.58,21,53,3898,0,0,0
1777326995350,15437,3812,-3738,772,-53,567,24.58,21,53,3898,0,0,0
1777326995350,16775,4490,-3541,664,-15,442,24.58,21,53,3898,0,0,0
1777326995417,17489,4856,-3441,483,33,240,24.58,21,53,3898,0,0,0
1777326995417,16651,4479,-3101,242,56,-27,24.58,21,53,3898,0,0,0
1777326995417,16366,4198,-2799,8,97,-247,24.58,21,53,3898,0,0,0
1777326995417,17420,4539,-2303,-162,160,-440,24.58,21,53,3898,0,0,0
1777326995467,17887,4890,-1937,-285,231,-657,24.58,21,53,3898,0,0,0
1777326995467,18147,4667,-2126,-428,314,-908,24.58,21,53,3898,0,0,0
1777326995633,17531,3823,-2642,-604,343,-1146,24.58,21,53,3898,0,0,0
1777326995633,15868,2505,-2983,-778,262,-1343,24.58,21,53,3898,0,0,0
1777326995633,14904,1447,-3069,-930,135,-1468,24.58,21,53,3898,0,0,0
1777326995633,14748,803,-2958,-991,-29,-1538,24.58,21,53,3898,0,0,0
1777326995633,15035,438,-2268,-937,-198,-1566,24.58,21,53,3898,0,0,0
1777326995633,15581,376,-1445,-819,-276,-1566,24.58,21,53,3898,0,0,0
1777326995633,16333,429,-1254,-690,-264,-1566,24.58,21,53,3898,0,0,0
1777326995633,16379,304,-1174,-620,-230,-1554,24.58,21,53,3898,0,0,0
1777326995633,15796,47,-1344,-695,-137,-1507,24.58,21,53,3898,0,0,0
1777326995633,15822,-199,-2264,-921,-33,-1431,24.58,21,53,3898,0,0,0
1777326995667,15532,-454,-3075,-1219,20,-1302,24.58,21,53,3898,0,0,0
1777326995667,15018,-141,-3883,-1517,23,-1133,24.58,21,53,3898,0,0,0
1777326995734,15259,650,-4673,-1771,-15,-1051,24.58,23,54,3898,0,0,0
1777326995734,15797,1118,-5178,-2008,-72,-1106,24.58,23,54,3898,0,0,0
1777326995751,15622,817,-5587,-2095,-199,-1217,24.58,23,54,3898,0,0,0
1777326995751,15942,222,-5556,-2071,-337,-1306,24.58,23,54,3898,0,0,0
1777326995884,16418,-495,-5209,-1977,-410,-1345,24.58,23,54,3898,0,0,0
1777326995884,16531,-1111,-4908,-1780,-441,-1319,24.58,23,54,3898,0,0,0
1777326995884,16626,-1599,-4498,-1497,-426,-1250,24.58,23,54,3898,0,0,0
1777326995884,16309,-2067,-4131,-1173,-376,-1138,24.58,23,54,3898,0,0,0
1777326995884,15819,-2359,-3743,-829,-308,-1003,24.58,23,54,3898,0,0,0
1777326995884,16215,-2267,-3686,-472,-227,-894,24.58,23,54,3898,0,0,0
1777326995884,17320,-2004,-3692,-103,-178,-801,24.58,23,54,3898,0,0,0
1777326995950,18249,-1838,-3346,242,-153,-700,24.58,23,54,3898,0,0,0
1777326995951,19145,-1913,-3045,455,-55,-594,24.58,23,54,3898,0,0,0
1777326995984,19362,-2349,-3427,547,60,-465,24.58,23,54,3898,0,0,0
1777326995984,19365,-2642,-4329,553,112,-247,24.58,23,54,3898,0,0,0
1777326996084,21133,-1617,-4929,517,89,38,24.58,23,54,3898,0,0,0
1777326996084,23254,-98,-5457,456,41,293,24.58,23,54,3898,0,0,0
1777326996084,24293,729,-5566,418,-21,441,24.58,23,54,3898,0,0,0
1777326996084,22661,399,-5128,338,-60,457,24.58,23,54,3898,0,0,0
1777326996084,19879,-929,-4507,382,-67,445,24.58,23,54,3898,0,0,0
1777326996117,18317,-2003,-4302,579,-5,584,24.58,23,54,3898,0,0,0
1777326996117,18049,-2076,-4162,936,37,835,24.58,23,54,3898,0,0,0
1777326996184,18435,-1305,-3836,1332,73,1132,24.58,23,54,3898,0,0,0
1777326996184,18791,-117,-2957,1662,184,1346,24.58,23,54,3898,0,0,0
1777326996217,18609,930,-3245,1901,549,1511,24.58,23,54,3898,0,0,0
1777326996217,18378,1208,-4382,1892,718,1620,24.58,23,54,3898,0,0,0
1777326996217,17566,1580,-5398,1779,751,1735,24.58,23,54,3898,0,0,0
1777326996316,17292,2131,-6098,1596,680,1826,24.58,23,54,3898,0,0,0
1777326996316,16602,2702,-5871,1403,530,1868,24.58,23,54,3898,0,0,0
1777326996316,16126,3165,-5778,1166,351,1839,24.58,23,54,3898,0,0,0
1777326996350,15468,3280,-5170,971,218,1759,24.58,23,54,3898,0,0,0
1777326996350,14863,3303,-4672,818,166,1669,24.58,23,54,3898,0,0,0
1777326996383,14502,3494,-4391,744,172,1557,24.58,23,54,3898,0,0,0
1777326996383,14162,3714,-4468,738,177,1423,24.58,23,54,3898,0,0,0
1777326996384,13825,3829,-4612,767,158,1273,24.58,23,54,3898,0,0,0
1777326996384,13753,3762,-4416,785,127,1120,24.58,23,54,3898,0,0,0
1777326996450,13060,3616,-4200,777,107,991,24.58,23,54,3898,0,0,0
1777326996450,13029,3724,-3986,725,109,871,24.58,23,54,3898,0,0,0
1777326996484,13758,4213,-3929,639,117,742,24.58,23,54,3898,0,0,0
1777326996484,14944,4803,-3830,545,108,613,24.58,23,54,3898,0,0,0
1777326996517,16217,5346,-3638,435,99,453,24.58,23,54,3898,0,0,0
1777326996517,16977,5604,-3415,269,107,242,24.58,23,54,3898,0,0,0
1777326996583,17459,5253,-3505,67,122,30,24.58,23,54,3898,0,0,0
1777326996583,17293,4712,-3658,-123,83,-152,24.58,23,54,3898,0,0,0
1777326996583,17872,4730,-3348,-286,12,-284,24.58,23,54,3898,0,0,0
1777326996616,18892,5515,-2986,-415,-32,-383,24.58,23,54,3898,0,0,0
1777326996616,19558,6242,-2528,-506,-72,-563,24.58,23,54,3898,0,0,0
1777326996650,19873,6210,-1979,-617,-95,-833,24.58,23,54,3898,0,0,0
1777326996650,17539,4592,-1188,-800,-87,-1146,24.58,23,54,3898,0,0,0
1777326996718,15046,2712,-1364,-992,1,-1381,24.58,23,54,3898,0,0,0
1777326996718,14264,1391,-2017,-1083,7,-1510,24.58,23,54,3898,0,0,0
1777326996749,14363,556,-2301,-1021,-85,-1552,24.57,25,56,3900,0,0,0
1777326996749,14717,290,-1720,-852,-200,-1536,24.57,25,56,3900,0,0,0
1777326996749,15282,622,-807,-658,-210,-1498,24.57,25,56,3900,0,0,0
1777326996783,15782,915,-757,-531,-99,-1475,24.57,25,56,3900,0,0,0
1777326996783,15976,915,-1172,-521,12,-1451,24.57,25,56,3900,0,0,0
1777326996850,15273,507,-1648,-623,121,-1400,24.57,25,56,3900,0,0,0
1777326996850,14665,454,-2605,-804,195,-1309,24.57,25,56,3900,0,0,0
1777326996883,14678,749,-3634,-1025,187,-1243,24.57,25,56,3900,0,0,0
1777326996883,15089,960,-4340,-1238,76,-1240,24.57,25,56,3900,0,0,0
1777326996917,15142,638,-4757,-1393,-40,-1265,24.57,25,56,3900,0,0,0
1777326996917,15144,339,-4705,-1534,-142,-1289,24.57,25,56,3900,0,0,0
1777326996917,15367,-237,-4738,-1557,-230,-1298,24.57,25,56,3900,0,0,0
1777326996983,15472,-675,-4523,-1494,-289,-1265,24.57,25,56,3900,0,0,0
1777326996983,15712,-1178,-4274,-1338,-305,-1203,24.57,25,56,3900,0,0,0
1777326997016,15857,-1596,-4126,-1128,-295,-1105,24.57,25,56,3900,0,0,0
1777326997016,15911,-1876,-4126,-924,-281,-964,24.57,25,56,3900,0,0,0
1777326997083,16118,-2034,-4142,-764,-270,-810,24.57,25,56,3900,0,0,0
1777326997083,16251,-1981,-4084,-612,-279,-644,24.57,25,56,3900,0,0,0
1777326997116,17282,-1405,-3997,-463,-298,-499,24.57,25,56,3900,0,0,0
1777326997116,17956,-981,-3726,-295,-320,-428,24.57,25,56,3900,0,0,0
1777326997116,18778,-900,-3378,-124,-323,-390,24.57,25,56,3900,0,0,0
1777326997149,19473,-1259,-3338,42,-277,-335,24.57,25,56,3900,0,0,0
1777326997150,20098,-1579,-3412,180,-228,-214,24.57,25,56,3900,0,0,0
1777326997216,22554,-744,-3952,257,-130,-4,24.57,25,56,3900,0,0,0
1777326997216,24061,310,-4792,282,-76,214,24.57,25,56,3900,0,0,0
1777326997249,23765,545,-5393,289,-117,306,24.57,25,56,3900,0,0,0
1777326997249,22173,-264,-5128,316,-211,317,24.57,25,56,3900,0,0,0
1777326997383,19985,-1467,-4155,468,-248,406,24.57,25,56,3900,0,0,0
1777326997383,18524,-1805,-3434,796,-213,608,24.57,25,56,3900,0,0,0
1777326997383,18903,-1315,-2583,1222,-122,863,24.57,25,56,3900,0,0,0
1777326997383,18937,-136,-1858,1731,127,1136,24.57,25,56,3900,0,0,0
1777326997383,18427,129,-2083,1882,381,1266,24.57,25,56,3900,0,0,0
1777326997482,18130,560,-3196,1881,592,1423,24.57,25,56,3900,0,0,0
1777326997482,17378,1143,-4216,1776,679,1577,24.57,25,56,3900,0,0,0
1777326997483,16428,1770,-4934,1608,676,1676,24.57,25,56,3900,0,0,0
1777326997483,15506,2352,-5176,1410,624,1705,24.57,25,56,3900,0,0,0
1777326997483,14487,2827,-4373,1297,571,1650,24.57,25,56,3900,0,0,0
1777326997483,14473,2895,-4699,1234,553,1552,24.57,25,56,3900,0,0,0
1777326997483,14403,2993,-4810,1231,520,1431,24.57,25,56,3900,0,0,0
1777326997516,14280,2943,-4774,1290,460,1295,24.57,25,56,3900,0,0,0
1777326997516,14130,2771,-4477,1337,437,1174,24.57,25,56,3900,0,0,0
1777326997549,14083,2650,-4407,1329,446,1078,24.57,25,56,3900,0,0,0
1777326997549,14403,2691,-4617,1246,451,1013,24.57,25,56,3900,0,0,0
1777326997649,14585,2751,-4639,1129,422,965,24.57,25,56,3900,0,0,0
1777326997649,14817,3093,-4652,971,374,935,24.57,25,56,3900,0,0,0
1777326997649,15442,3816,-4697,786,300,861,24.57,25,56,3900,0,0,0
1777326997649,16113,4595,-4456,602,211,751,24.57,25,56,3900,0,0,0
1777326997649,16587,5202,-4159,406,121,626,24.57,25,56,3900,0,0,0
1777326997699,16189,5300,-3804,208,50,519,24.57,25,56,3900,0,0,0
1777326997699,15721,5834,-3295,0,-24,454,24.57,25,56,3900,0,0,0
1777326997749,15810,6171,-3100,-231,-95,320,24.57,26,57,3903,0,0,0
1777326997883,16853,6788,-2167,-436,-173,112,24.57,26,57,3903,0,0,0
1777326997883,19124,7468,-1547,-613,-125,-87,24.57,26,57,3903,0,0,0
1777326997883,20366,7538,-1378,-796,-9,-314,24.57,26,57,3903,0,0,0
1777326997883,20026,7094,-2236,-1006,130,-542,24.57,26,57,3903,0,0,0
1777326997883,17583,5798,-3220,-1211,121,-834,24.57,26,57,3903,0,0,0
1777326997883,15414,4182,-3830,-1299,-50,-1085,24.57,26,57,3903,0,0,0
1777326997883,14786,3295,-3375,-1251,-296,-1273,24.57,26,57,3903,0,0,0
1777326997883,15319,2643,-2103,-1055,-468,-1472,24.57,26,57,3903,0,0,0
1777326997916,15840,1758,-898,-731,-501,-1636,24.57,26,57,3903,0,0,0
1777326997916,15885,958,111,-369,-411,-1649,24.57,26,57,3903,0,0,0
1777326997982,15158,528,260,-111,-233,-1503,24.57,26,57,3903,0,0,0
1777326997982,14730,919,-470,-93,-43,-1297,24.57,26,57,3903,0,0,0
1777326998016,15161,1309,-1845,-344,83,-1155,24.57,26,57,3903,0,0,0
1777326998016,14630,1028,-2780,-744,63,-1069,24.57,26,57,3903,0,0,0
1777326998016,13855,1007,-3120,-1175,18,-941,24.57,26,57,3903,0,0,0
1777326998066,14040,1330,-3757,-1556,-16,-883,24.57,26,57,3903,0,0,0
1777326998066,14687,1335,-4633,-1780,-49,-920,24.57,26,57,3903,0,0,0
1777326998116,14598,1070,-5248,-1873,-182,-996,24.57,26,57,3903,0,0,0
1777326998116,14824,413,-5381,-1807,-373,-1053,24.57,26,57,3903,0,0,0
1777326998149,14928,-235,-4750,-1676,-511,-1070,24.57,26,57,3903,0,0,0
1777326998149,15292,-712,-4073,-1492,-559,-1034,24.57,26,57,3903,0,0,0
1777326998183,15964,-892,-3520,-1263,-564,-969,24.57,26,57,3903,0,0,0
1777326998183,16603,-957,-3030,-1040,-527,-891,24.57,26,57,3903,0,0,0
1777326998183,16884,-952,-2660,-854,-464,-819,24.57,26,57,3903,0,0,0
1777326998249,17397,-777,-2518,-692,-396,-780,24.57,26,57,3903,0,0,0
1777326998249,18123,-629,-2368,-513,-332,-770,24.57,26,57,3903,0,0,0
1777326998283,18586,-782,-2258,-305,-253,-772,24.57,26,57,3903,0,0,0
1777326998283,18870,-1267,-2226,-102,-177,-744,24.57,26,57,3903,0,0,0
1777326998315,18922,-1814,-2214,68,-68,-696,24.57,26,57,3903,0,0,0
1777326998316,19753,-2051,-2701,228,37,-568,24.57,26,57,3903,0,0,0
1777326998382,22357,-1102,-3494,337,146,-332,24.57,26,57,3903,0,0,0
1777326998382,24118,-342,-4447,355,219,-113,24.57,26,57,3903,0,0,0
1777326998382,24019,-505,-5205,311,229,20,24.57,26,57,3903,0,0,0
1777326998449,23236,-1031,-5555,255,167,147,24.57,26,57,3903,0,0,0
1777326998449,21464,-1989,-5445,321,16,454,24.57,26,57,3903,0,0,0
1777326998449,19782,-2336,-4561,504,-114,726,24.57,26,57,3903,0,0,0
1777326998449,18416,-2168,-2983,787,-154,1015,24.57,26,57,3903,0,0,0
1777326998515,17709,-1644,-1739,1104,-1,1291,24.57,26,57,3903,0,0,0
1777326998515,17037,-1039,-1713,1390,264,1545,24.57,26,57,3903,0,0,0
1777326998549,17072,125,-2446,1593,538,1759,24.57,26,57,3903,0,0,0
1777326998549,17060,1218,-3710,1637,735,1848,24.57,26,57,3903,0,0,0
1777326998549,16625,1696,-4792,1552,784,1848,24.57,26,57,3903,0,0,0
1777326998584,16316,1834,-5657,1399,713,1807,24.57,26,57,3903,0,0,0
1777326998584,15955,1795,-5792,1203,544,1751,24.57,26,57,3903,0,0,0
1777326998649,15273,1506,-5158,968,401,1722,24.57,26,57,3903,0,0,0
1777326998649,14887,1474,-5094,788,357,1732,24.57,26,57,3903,0,0,0
1777326998682,14875,1934,-5232,602,309,1760,24.57,26,57,3903,0,0,0
1777326998682,15060,2686,-5298,493,260,1737,24.57,26,57,3903,0,0,0
1777326998749,14959,3199,-5068,440,205,1628,24.57,28,59,3903,0,0,0
1777326998749,14736,3320,-4945,450,184,1488,24.57,28,59,3903,0,0,0
1777326998749,14502,3627,-4780,488,184,1346,24.57,28,59,3903,0,0,0
1777326998766,14857,3725,-5047,519,179,1182,24.57,28,59,3903,0,0,0
1777326998766,14732,3566,-4856,527,139,1005,24.57,28,59,3903,0,0,0
1777326998832,14753,3455,-4089,559,145,877,24.57,28,59,3903,0,0,0
1777326998832,15250,3662,-3734,653,235,755,24.57,28,59,3903,0,0,0
1777326998899,15911,3720,-3778,797,321,628,24.57,28,59,3903,0,0,0
1777326998899,16388,3793,-4058,865,355,506,24.57,28,59,3903,0,0,0
1777326998899,16877,3942,-4301,832,285,367,24.57,28,59,3903,0,0,0
1777326998899,16434,4044,-3716,703,136,192,24.57,28,59,3903,0,0,0
1777326998899,17342,4562,-3006,496,27,-15,24.57,28,59,3903,0,0,0
1777326998966,19169,5369,-2453,281,-33,-231,24.57,28,59,3903,0,0,0
1777326998966,20091,6151,-1803,54,-63,-500,24.57,28,59,3903,0,0,0
1777326998999,19428,5726,-1798,-236,-39,-857,24.57,28,59,3903,0,0,0
1777326998999,16490,3562,-2302,-547,-83,-1219,24.57,28,59,3903,0,0,0
1777326999032,14918,1804,-2776,-778,-225,-1395,24.57,28,59,3903,0,0,0
1777326999032,14535,1223,-2105,-854,-441,-1467,24.57,28,59,3903,0,0,0
1777326999099,14733,953,-1043,-789,-576,-1526,24.57,28,59,3903,0,0,0
1777326999099,15274,974,-176,-628,-602,-1607,24.57,28,59,3903,0,0,0
1777326999099,16293,1068,207,-419,-526,-1689,24.57,28,59,3903,0,0,0
1777326999199,17055,161,309,-261,-380,-1715,24.57,28,59,3903,0,0,0
1777326999199,15508,-758,496,-201,-198,-1525,24.57,28,59,3903,0,0,0
1777326999199,14383,-677,-180,-335,19,-1231,24.57,28,59,3903,0,0,0
1777326999199,14820,-201,-1554,-663,170,-1022,24.57,28,59,3903,0,0,0
1777326999232,14583,-96,-2735,-1025,144,-918,24.57,28,59,3903,0,0,0
1777326999232,14480,-255,-3111,-1326,56,-827,24.57,28,59,3903,0,0,0
1777326999265,14841,-330,-3192,-1525,-13,-740,24.57,28,59,3903,0,0,0
1777326999265,15037,63,-3464,-1613,-42,-681,24.57,28,59,3903,0,0,0
1777326999265,15493,409,-3582,-1597,-84,-721,24.57,28,59,3903,0,0,0
1777326999332,15638,194,-3761,-1473,-136,-822,24.57,28,59,3903,0,0,0
1777326999332,15336,-334,-3841,-1316,-197,-905,24.57,28,59,3903,0,0,0
1777326999366,15841,-837,-4086,-1189,-283,-960,24.57,28,59,3903,0,0,0
1777326999366,15848,-1549,-3581,-1104,-396,-973,24.57,28,59,3903,0,0,0
1777326999399,15770,-2193,-3038,-965,-452,-927,24.57,28,59,3903,0,0,0
1777326999399,16343,-2369,-2181,-743,-463,-815,24.57,28,59,3903,0,0,0
1777326999465,17180,-2168,-1478,-458,-401,-714,24.57,28,59,3903,0,0,0
1777326999465,18229,-2000,-1361,-169,-298,-629,24.57,28,59,3903,0,0,0
1777326999465,19211,-2053,-1625,46,-223,-552,24.57,28,59,3903,0,0,0
1777326999498,19530,-2377,-1760,114,-169,-444,24.57,28,59,3903,0,0,0
1777326999498,21066,-2198,-2018,63,-95,-277,24.57,28,59,3903,0,0,0
1777326999533,25212,-762,-2954,-64,46,96,24.57,28,59,3903,0,0,0
1777326999533,25195,-575,-3417,-121,73,256,24.57,28,59,3903,0,0,0
1777326999615,22942,-1413,-3535,-183,81,315,24.57,28,59,3903,0,0,0
1777326999615,20732,-2554,-3768,-142,109,416,24.57,28,59,3903,0,0,0
1777326999654,18946,-2979,-3936,86,56,599,24.57,28,59,3903,0,0,0
1777326999654,17182,-2782,-3046,465,-6,778,24.57,28,59,3903,0,0,0
1777326999654,16516,-2232,-2066,935,48,939,24.57,28,59,3903,0,0,0
1777326999695,16483,-1542,-1779,1383,230,1049,24.57,28,59,3903,0,0,0
1777326999695,16556,-871,-2277,1729,439,1103,24.57,28,59,3903,0,0,0
1777326999728,16854,-549,-3042,1896,608,1135,24.56,30,61,3905,0,0,0
1777326999728,16724,-485,-3939,1868,688,1158,24.56,30,61,3905,0,0,0
1777326999778,16255,-562,-4648,1686,680,1202,24.56,30,61,3905,0,0,0
1777326999778,16013,-505,-5049,1409,601,1262,24.56,30,61,3905,0,0,0
1777326999861,15830,-289,-5214,1120,477,1328,24.56,30,61,3905,0,0,0
1777326999861,15294,150,-4666,896,347,1373,24.56,30,61,3905,0,0,0
1777326999861,15444,570,-5067,691,217,1380,24.56,30,61,3905,0,0,0
1777326999861,15223,923,-4724,555,117,1359,24.56,30,61,3905,0,0,0
1777326999861,15400,1342,-4449,516,95,1335,24.56,30,61,3905,0,0,0
1777326999945,15529,1733,-4131,567,107,1286,24.56,30,61,3905,0,0,0
1777326999978,15205,1912,-4158,670,128,1208,24.56,30,61,3905,0,0,0
1777326999978,14729,1943,-4038,778,154,1122,24.56,30,61,3905,0,0,0
1777326999978,14742,2013,-4023,834,184,1055,24.56,30,61,3905,0,0,0
1777326999978,15195,2358,-4175,822,177,993,24.56,30,61,3905,0,0,0
1777327000011,15708,2837,-3905,748,127,899,24.56,30,61,3905,0,0,0
1777327000011,16751,3137,-3866,617,107,785,24.56,30,61,3905,0,0,0
1777327000044,17492,3308,-3719,434,89,681,24.56,30,61,3905,0,0,0
1777327000044,17846,3485,-3656,222,69,581,24.56,30,61,3905,0,0,0
1777327000078,17652,3350,-3639,8,18,471,24.56,30,61,3905,0,0,0
1777327000078,16693,2988,-3289,-181,-73,364,24.56,30,61,3905,0,0,0
1777327000178,17374,3390,-2587,-303,-147,264,24.56,30,61,3905,0,0,0
1777327000178,18347,4169,-1618,-339,-179,167,24.56,30,61,3905,0,0,0
1777327000178,19143,4890,-904,-357,-120,26,24.56,30,61,3905,0,0,0
1777327000178,19524,5213,-958,-439,10,-201,24.56,30,61,3905,0,0,0
1777327000178,17746,4178,-1378,-605,74,-494,24.56,30,61,3905,0,0,0
1777327000261,15618,2444,-2027,-780,25,-711,24.56,30,61,3905,0,0,0
1777327000261,14129,1186,-2049,-895,-113,-807,24.56,30,61,3905,0,0,0
1777327000261,13506,804,-1450,-911,-264,-807,24.56,30,61,3905,0,0,0
1777327000261,13712,1175,-628,-841,-336,-799,24.56,30,61,3905,0,0,0
1777327000311,14358,1790,-55,-695,-309,-870,24.56,30,61,3905,0,0,0
1777327000311,14144,1922,268,-506,-223,-983,24.56,30,61,3905,0,0,0
1777327000344,13955,1940,-167,-383,-110,-1081,24.56,30,61,3905,0,0,0
1777327000344,14053,1849,-771,-420,-19,-1190,24.56,30,61,3905,0,0,0
1777327000344,13821,1280,-1374,-606,25,-1284,24.56,30,61,3905,0,0,0
1777327000411,13434,642,-1897,-869,41,-1295,24.56,30,61,3905,0,0,0
1777327000411,13917,648,-2490,-1146,34,-1259,24.56,30,61,3905,0,0,0
1777327000445,14150,955,-2652,-1353,2,-1281,24.56,30,61,3905,0,0,0
1777327000445,14318,887,-2913,-1445,-16,-1361,24.56,30,61,3905,0,0,0
1777327000477,14755,628,-3320,-1531,-27,-1467,24.56,30,61,3905,0,0,0
1777327000477,15654,206,-3783,-1526,-54,-1549,24.56,30,61,3905,0,0,0
1777327000544,16350,-345,-3781,-1453,-91,-1596,24.56,30,61,3905,0,0,0
1777327000544,16985,-909,-3791,-1330,-111,-1578,24.56,30,61,3905,0,0,0
1777327000544,17264,-1500,-3795,-1208,-121,-1508,24.56,30,61,3905,0,0,0
1777327000578,17597,-1813,-3763,-1111,-134,-1410,24.56,30,61,3905,0,0,0
1777327000578,17807,-2257,-3833,-1007,-161,-1322,24.56,30,61,3905,0,0,0
1777327000610,18253,-2594,-3677,-859,-227,-1217,24.56,30,61,3905,0,0,0
1777327000611,18627,-2836,-3256,-688,-282,-1100,24.56,30,61,3905,0,0,0
1777327000677,19502,-3245,-2934,-418,-271,-899,24.56,30,61,3905,0,0,0
1777327000677,19847,-3598,-2975,-260,-242,-716,24.56,30,61,3905,0,0,0
1777327000711,22253,-2563,-3282,-164,-159,-449,24.56,30,61,3905,0,0,0
1777327000711,25641,-623,-4121,-128,-69,-190,24.56,30,61,3905,0,0,0
1777327000711,26342,-76,-4451,-102,-39,-129,24.57,31,62,3908,0,0,0
1777327000796,24209,-1408,-4524,-23,-28,-178,24.57,31,62,3908,0,0,0
1777327000796,21262,-3378,-4540,107,28,-93,24.57,31,62,3908,0,0,0
1777327000796,19100,-4219,-5209,333,71,204,24.57,31,62,3908,0,0,0
1777327000796,17548,-3979,-4903,740,-65,584,24.57,31,62,3908,0,0,0
1777327000863,16798,-2722,-3654,1216,-189,955,24.57,31,62,3908,0,0,0
1777327000863,17048,-947,-2048,1618,-146,1163,24.57,31,62,3908,0,0,0
1777327000896,17431,-54,-1558,1839,63,1182,24.57,31,62,3908,0,0,0
1777327000896,17164,-5,-1903,1892,321,1201,24.57,31,62,3908,0,0,0
1777327000896,17073,-10,-3184,1838,497,1315,24.57,31,62,3908,0,0,0
1777327000929,16563,511,-3986,1695,540,1454,24.57,31,62,3908,0,0,0
1777327000929,16868,1188,-4720,1520,519,1551,24.57,31,62,3908,0,0,0
1777327000996,16927,1582,-4890,1325,402,1575,24.57,31,62,3908,0,0,0
1777327000996,15831,1653,-4253,1112,330,1571,24.57,31,62,3908,0,0,0
1777327001063,16084,1696,-4392,906,361,1585,24.57,31,62,3908,0,0,0
1777327001063,16286,2031,-4861,727,326,1602,24.57,31,62,3908,0,0,0
1777327001063,15978,2321,-4949,644,254,1596,24.57,31,62,3908,0,0,0
1777327001063,15535,2628,-4752,605,233,1574,24.57,31,62,3908,0,0,0
1777327001129,15614,3045,-4851,609,235,1519,24.57,31,62,3908,0,0,0
1777327001129,15407,3401,-4914,641,227,1435,24.57,31,62,3908,0,0,0
1777327001129,15283,3555,-4701,679,218,1330,24.57,31,62,3908,0,0,0
1777327001163,15184,3809,-4613,696,223,1222,24.57,31,62,3908,0,0,0
1777327001163,15589,4159,-4710,670,208,1081,24.57,31,62,3908,0,0,0
1777327001196,16129,4465,-4561,606,167,913,24.57,31,62,3908,0,0,0
1777327001196,16225,4508,-4115,519,106,724,24.57,31,62,3908,0,0,0
1777327001262,16663,4622,-3602,409,110,571,24.57,31,62,3908,0,0,0
1777327001263,16648,4713,-3395,294,116,420,24.57,31,62,3908,0,0,0
1777327001263,16698,4792,-3183,196,94,262,24.57,31,62,3908,0,0,0
1777327001296,17203,4964,-2768,101,55,87,24.57,31,62,3908,0,0,0
1777327001296,18104,5536,-2293,2,56,-41,24.57,31,62,3908,0,0,0
1777327001329,18869,6170,-1974,-143,108,-192,24.57,31,62,3908,0,0,0
1777327001329,18498,6081,-2220,-384,186,-424,24.57,31,62,3908,0,0,0
1777327001395,15514,4512,-2961,-699,141,-714,24.57,31,62,3908,0,0,0
1777327001395,13200,2935,-3172,-954,3,-939,24.57,31,62,3908,0,0,0
1777327001429,12893,2264,-2974,-1070,-182,-1071,24.57,31,62,3908,0,0,0
1777327001429,13466,2130,-2156,-1032,-336,-1204,24.57,31,62,3908,0,0,0
1777327001429,14593,1885,-1292,-864,-379,-1390,24.57,31,62,3908,0,0,0
1777327001529,16126,1225,-729,-615,-280,-1553,24.57,31,62,3908,0,0,0
1777327001529,16518,276,-851,-316,-109,-1581,24.57,31,62,3908,0,0,0
1777327001529,16460,-479,-1339,-100,52,-1428,24.57,31,62,3908,0,0,0
1777327001529,15876,-551,-2123,-87,167,-1181,24.57,31,62,3908,0,0,0
1777327001562,15288,-47,-3154,-303,195,-965,24.57,31,62,3908,0,0,0
1777327001562,15384,632,-4154,-679,107,-884,24.57,31,62,3908,0,0,0
1777327001662,15302,862,-4524,-1058,-73,-917,24.57,31,62,3908,0,0,0
1777327001662,15329,293,-4705,-1260,-228,-964,24.57,31,62,3908,0,0,0
1777327001662,15083,85,-4082,-1360,-359,-957,24.57,31,62,3908,0,0,0
1777327001662,14971,83,-3442,-1317,-415,-942,24.57,31,62,3908,0,0,0
1777327001662,14700,280,-2732,-1147,-384,-946,24.57,31,62,3908,0,0,0
1777327001696,15467,355,-2600,-898,-302,-992,24.57,31,62,3908,0,0,0
1777327001696,15621,45,-2354,-628,-253,-1078,24.57,31,62,3908,0,0,0
1777327001780,15500,-633,-2147,-409,-185,-1117,24.58,31,62,3910,0,0,0
1777327001780,15897,-1067,-2179,-280,-124,-1099,24.58,31,62,3910,0,0,0
1777327001780,16700,-1288,-2269,-184,-95,-1032,24.58,31,62,3910,0,0,0
1777327001846,17231,-1432,-2422,-166,-123,-985,24.58,31,62,3910,0,0,0
1777327001846,17698,-1748,-2152,-164,-177,-939,24.58,31,62,3910,0,0,0
1777327001846,18251,-2223,-1962,-183,-162,-873,24.58,31,62,3910,0,0,0
1777327001846,18720,-2779,-2212,-200,-125,-758,24.58,31,62,3910,0,0,0
1777327001880,18463,-3209,-2604,-199,-100,-581,24.58,31,62,3910,0,0,0
1777327001880,20071,-2573,-3151,-194,-53,-312,24.58,31,62,3910,0,0,0
1777327001913,23334,-749,-4088,-177,-6,-39,24.58,31,62,3910,0,0,0
1777327001913,25239,366,-4469,-153,-18,83,24.58,31,62,3910,0,0,0
1777327001980,23657,-348,-4745,-158,3,103,24.58,31,62,3910,0,0,0
1777327001980,20928,-1861,-5020,-177,55,174,24.58,31,62,3910,0,0,0
1777327001980,19031,-2697,-5736,-67,87,401,24.58,31,62,3910,0,0,0
1777327002013,17973,-2414,-5834,265,-12,708,24.58,31,62,3910,0,0,0
1777327002013,17353,-1498,-5150,731,-159,996,24.58,31,62,3910,0,0,0
1777327002096,17107,-315,-3646,1153,-199,1177,24.58,31,62,3910,0,0,0
1777327002096,16900,352,-2951,1392,-37,1229,24.58,31,62,3910,0,0,0
1777327002096,17181,666,-3425,1449,143,1286,24.58,31,62,3910,0,0,0
1777327002096,17307,739,-4352,1397,232,1372,24.58,31,62,3910,0,0,0
1777327002147,17115,1106,-4850,1285,226,1491,24.58,31,62,3910,0,0,0
1777327002147,16756,1530,-4908,1142,184,1597,24.58,31,62,3910,0,0,0
1777327002147,16612,1957,-4742,997,140,1665,24.58,31,62,3910,0,0,0
1777327002213,16520,2217,-5043,863,79,1690,24.58,31,62,3910,0,0,0
1777327002246,16349,2525,-4764,784,15,1690,24.58,31,62,3910,0,0,0
1777327002246,16284,2812,-4527,719,-13,1677,24.58,31,62,3910,0,0,0
1777327002246,16037,3146,-4205,685,-18,1643,24.58,31,62,3910,0,0,0
1777327002280,15641,3404,-3936,684,18,1592,24.58,31,62,3910,0,0,0
1777327002280,15127,3522,-4003,666,69,1519,24.58,31,62,3910,0,0,0
1777327002346,14642,3595,-4014,640,87,1435,24.58,31,62,3910,0,0,0
1777327002346,14257,3701,-3848,599,86,1328,24.58,31,62,3910,0,0,0
1777327002346,14332,3902,-3472,529,86,1197,24.58,31,62,3910,0,0,0
1777327002379,14597,4274,-3311,423,109,1056,24.58,31,62,3910,0,0,0
1777327002379,15193,4681,-3283,301,119,881,24.58,31,62,3910,0,0,0
1777327002413,15623,4839,-3190,166,110,686,24.58,31,62,3910,0,0,0
1777327002413,16031,4849,-3076,11,103,494,24.58,31,62,3910,0,0,0
1777327002479,15862,4623,-2883,-152,102,326,24.58,31,62,3910,0,0,0
1777327002479,15763,4707,-2679,-315,112,195,24.58,31,62,3910,0,0,0
1777327002513,16836,5463,-2471,-449,120,42,24.58,31,62,3910,0,0,0
1777327002513,18680,6607,-2114,-573,140,-159,24.58,31,62,3910,0,0,0
1777327002513,19837,7194,-2056,-738,210,-473,24.58,31,62,3910,0,0,0
1777327002547,18484,6208,-2600,-969,267,-878,24.58,31,62,3910,0,0,0
1777327002547,16441,4035,-3387,-1204,261,-1250,24.58,31,62,3910,0,0,0
1777327002613,14755,2101,-3925,-1298,96,-1479,24.58,31,62,3910,0,0,0
1777327002613,14161,914,-3218,-1260,-144,-1614,24.58,31,62,3910,0,0,0
1777327002646,14991,233,-1995,-1076,-295,-1729,24.58,31,62,3910,0,0,0
1777327002646,16060,-408,-516,-788,-320,-1772,24.58,31,62,3910,0,0,0
1777327002696,16746,-589,287,-497,-161,-1683,24.58,31,62,3910,0,0,0
1777327002696,18030,-592,-280,-377,84,-1497,24.58,31,62,3910,0,0,0
1777327002696,17383,-993,-1146,-457,313,-1234,24.57,32,63,3911,0,0,0
1777327002729,15915,-809,-2436,-707,457,-890,24.57,32,63,3911,0,0,0
1777327002729,15313,129,-4250,-1179,466,-604,24.57,32,63,3911,0,0,0
1777327002796,15116,1095,-5350,-1773,290,-469,24.57,32,63,3911,0,0,0
1777327002796,14577,1393,-5542,-2235,90,-469,24.57,32,63,3911,0,0,0
1777327002829,14216,1222,-5556,-2527,-175,-512,24.57,32,63,3911,0,0,0
1777327002829,13916,861,-5211,-2590,-355,-528,24.57,32,63,3911,0,0,0
1777327002879,13855,673,-4557,-2487,-438,-544,24.57,32,63,3911,0,0,0
1777327002879,13883,283,-3747,-2136,-341,-523,24.57,32,63,3911,0,0,0
1777327002879,14033,213,-4120,-1872,-229,-480,24.57,32,63,3911,0,0,0
1777327002929,14253,318,-4783,-1674,-181,-449,24.57,32,63,3911,0,0,0
1777327002929,14066,196,-5031,-1557,-218,-444,24.57,32,63,3911,0,0,0
1777327002963,13777,47,-4959,-1489,-280,-451,24.57,32,63,3911,0,0,0
1777327002963,14228,63,-4723,-1422,-341,-484,24.57,32,63,3911,0,0,0
1777327002996,15068,-74,-4235,-1303,-390,-535,24.57,32,63,3911,0,0,0
1777327002996,16199,-285,-3853,-1124,-382,-582,24.57,32,63,3911,0,0,0
1777327003062,17518,-794,-4032,-964,-346,-589,24.57,32,63,3911,0,0,0
1777327003062,18291,-1744,-4359,-839,-330,-504,24.57,32,63,3911,0,0,0
1777327003063,19246,-2309,-4772,-822,-339,-294,24.57,32,63,3911,0,0,0
1777327003096,22840,-928,-5220,-856,-339,15,24.57,32,63,3911,0,0,0
1777327003096,25537,777,-5443,-895,-405,275,24.57,32,63,3911,0,0,0
1777327003129,25334,1061,-5182,-962,-469,360,24.57,32,63,3911,0,0,0
1777327003129,22550,-502,-5550,-1024,-501,332,24.57,32,63,3911,0,0,0
1777327003196,19778,-2260,-5459,-986,-588,432,24.57,32,63,3911,0,0,0
1777327003196,18508,-2891,-5330,-779,-702,692,24.57,32,63,3911,0,0,0
1777327003229,18467,-2382,-4476,-394,-904,989,24.57,32,63,3911,0,0,0
1777327003229,18451,-1395,-2313,23,-1027,1223,24.57,32,63,3911,0,0,0
1777327003229,18373,-657,-988,297,-901,1343,24.57,32,63,3911,0,0,0
1777327003263,18490,-198,-520,470,-672,1450,24.57,32,63,3911,0,0,0
1777327003263,18775,279,-810,544,-424,1591,24.57,32,63,3911,0,0,0
1777327003329,18423,916,-1741,503,-249,1714,24.57,32,63,3911,0,0,0
1777327003329,18038,1622,-2697,393,-199,1798,24.57,32,63,3911,0,0,0
1777327003362,17213,2047,-2886,234,-262,1823,24.57,32,63,3911,0,0,0
1777327003362,16224,2324,-2598,64,-339,1799,24.57,32,63,3911,0,0,0
1777327003396,15798,2584,-2319,-52,-365,1728,24.57,32,63,3911,0,0,0
1777327003396,15240,2742,-1731,-158,-345,1614,24.57,32,63,3911,0,0,0
1777327003396,14961,2980,-1403,-173,-282,1504,24.57,32,63,3911,0,0,0
1777327003462,14920,3282,-1246,-156,-181,1382,24.57,32,63,3911,0,0,0
1777327003462,14820,3435,-1229,-145,-75,1240,24.57,32,63,3911,0,0,0
1777327003496,14297,3215,-1226,-186,29,1090,24.57,32,63,3911,0,0,0
1777327003496,14127,2992,-1409,-282,134,951,24.57,32,63,3911,0,0,0
1777327003562,13999,2802,-1612,-384,197,833,24.57,32,63,3911,0,0,0
1777327003562,13857,2673,-1696,-490,239,730,24.57,32,63,3911,0,0,0
1777327003629,14113,2872,-1807,-616,282,647,24.57,32,63,3911,0,0,0
1777327003629,14503,3045,-1934,-755,317,553,24.57,32,63,3911,0,0,0
1777327003629,14774,3357,-1941,-898,364,464,24.57,32,63,3911,0,0,0
1777327003629,14807,3749,-1954,-1048,429,348,24.57,32,63,3911,0,0,0
1777327003629,14534,3749,-1986,-1149,508,210,24.57,32,63,3911,0,0,0
1777327003729,15131,4070,-2253,-1186,604,69,24.57,32,63,3911,0,0,0
1777327003729,17494,4784,-2704,-1205,697,-75,24.57,32,63,3911,0,0,0
1777327003729,19343,5355,-3159,-1295,778,-213,24.56,33,64,3911,0,0,0
1777327003729,19625,5459,-3517,-1526,869,-334,24.56,33,64,3911,0,0,0
1777327003729,19065,5140,-4688,-1902,965,-488,24.56,33,64,3911,0,0,0
1777327003779,18380,4223,-6343,-2244,905,-639,24.56,33,64,3911,0,0,0
1777327003779,16932,2914,-6763,-2436,653,-773,24.56,33,64,3911,0,0,0
1777327003879,16407,1771,-6372,-2474,378,-865,24.56,33,64,3911,0,0,0
1777327003879,17233,1085,-5510,-2376,168,-921,24.56,33,64,3911,0,0,0
1777327003879,17795,95,-4591,-2176,83,-870,24.56,33,64,3911,0,0,0
1777327003879,17106,-351,-3557,-1951,113,-640,24.56,33,64,3911,0,0,0
1777327003912,15995,56,-3197,-1839,261,-347,24.56,33,64,3911,0,0,0
1777327003913,15015,953,-3771,-1908,440,-161,24.56,33,64,3911,0,0,0
1777327003946,14435,1581,-5163,-2113,519,-92,24.56,33,64,3911,0,0,0
1777327003946,14243,1922,-6141,-2367,438,-66,24.56,33,64,3911,0,0,0
1777327003946,13793,1922,-6344,-2596,305,-53,24.56,33,64,3911,0,0,0
1777327003997,13772,1944,-6520,-2820,100,-58,24.56,33,64,3911,0,0,0
1777327003997,13690,1836,-6537,-2880,-27,-69,24.56,33,64,3911,0,0,0
1777327004029,13655,1771,-6483,-2883,-136,-80,24.56,33,64,3911,0,0,0
1777327004029,13698,1818,-6304,-2837,-231,-94,24.56,33,64,3911,0,0,0
1777327004081,13925,1877,-6002,-2748,-293,-135,24.56,33,64,3911,0,0,0
1777327004081,13991,1895,-5727,-2639,-318,-204,24.56,33,64,3911,0,0,0
1777327004130,13973,1791,-5561,-2481,-327,-308,24.56,33,64,3911,0,0,0
1777327004130,13828,1411,-5409,-2282,-324,-434,24.56,33,64,3911,0,0,0
1777327004130,13953,935,-5331,-2037,-334,-548,24.56,33,64,3911,0,0,0
1777327004162,14176,484,-4975,-1757,-343,-641,24.56,33,64,3911,0,0,0
1777327004163,14550,-78,-4873,-1491,-324,-684,24.56,33,64,3911,0,0,0
1777327004229,15236,-378,-4948,-1286,-327,-689,24.56,33,64,3911,0,0,0
1777327004229,15709,-756,-4805,-1174,-353,-676,24.56,33,64,3911,0,0,0
1777327004262,15795,-1251,-4635,-1122,-372,-622,24.56,33,64,3911,0,0,0
1777327004262,15852,-1641,-4600,-1160,-372,-494,24.56,33,64,3911,0,0,0
1777327004329,16872,-1457,-5073,-1292,-362,-329,24.56,33,64,3911,0,0,0
1777327004329,19982,-52,-5909,-1435,-391,-147,24.56,33,64,3911,0,0,0
1777327004329,23281,1741,-6106,-1573,-457,-47,24.56,33,64,3911,0,0,0
1777327004362,23624,1536,-6058,-1712,-528,-111,24.56,33,64,3911,0,0,0
1777327004362,20256,-897,-6022,-1766,-596,-257,24.56,33,64,3911,0,0,0
1777327004395,17000,-3266,-5941,-1737,-652,-207,24.56,33,64,3911,0,0,0
1777327004395,15648,-4349,-5966,-1590,-747,-14,24.56,33,64,3911,0,0,0
1777327004462,17002,-4092,-5781,-1207,-981,192,24.56,33,64,3911,0,0,0
1777327004462,17647,-3623,-3317,-646,-1248,335,24.56,33,64,3911,0,0,0
1777327004495,18493,-3302,-990,-135,-1172,463,24.56,33,64,3911,0,0,0
1777327004495,19503,-2904,-301,290,-845,654,24.56,33,64,3911,0,0,0
1777327004495,20190,-2285,-502,649,-505,930,24.56,33,64,3911,0,0,0
1777327004528,20476,-1430,-1294,859,-227,1161,24.56,33,64,3911,0,0,0
1777327004528,20434,-879,-2483,906,-70,1343,24.56,33,64,3911,0,0,0
1777327004595,20433,-613,-3280,833,-91,1512,24.56,33,64,3911,0,0,0
1777327004595,19744,-69,-3071,677,-202,1675,24.56,33,64,3911,0,0,0
1777327004628,19181,433,-2633,483,-275,1810,24.56,33,64,3911,0,0,0
1777327004628,18746,954,-2254,280,-309,1907,24.56,33,64,3911,0,0,0
1777327004696,18214,1435,-1906,131,-316,1950,24.56,33,64,3911,0,0,0
1777327004696,17718,1888,-1623,64,-313,1932,24.56,33,64,3911,0,0,0
1777327004696,17068,2285,-1153,66,-280,1886,24.56,33,64,3911,0,0,0
1777327004728,16347,2617,-675,51,-169,1822,24.57,35,66,3912,0,0,0
1777327004728,15542,2879,-887,-19,-9,1713,24.57,35,66,3912,0,0,0
1777327004778,14983,3042,-1558,-108,103,1544,24.57,35,66,3912,0,0,0
1777327004778,14294,2884,-1951,-184,143,1360,24.57,35,66,3912,0,0,0
1777327004795,13750,2735,-2224,-275,150,1211,24.57,35,66,3912,0,0,0
1777327004795,13278,2675,-2465,-381,141,1071,24.57,35,66,3912,0,0,0
1777327004862,12977,2836,-2412,-495,127,939,24.57,35,66,3912,0,0,0
1777327004862,12796,3132,-2311,-596,151,789,24.57,35,66,3912,0,0,0
1777327004862,12522,3411,-2180,-720,203,592,24.57,35,66,3912,0,0,0
1777327004895,12531,3466,-2408,-821,249,363,24.57,35,66,3912,0,0,0
1777327004895,13132,3494,-2592,-878,266,130,24.57,35,66,3912,0,0,0
1777327004928,14141,3382,-2544,-902,277,-97,24.57,35,66,3912,0,0,0
1777327004928,15183,3220,-2289,-905,325,-275,24.57,35,66,3912,0,0,0
1777327004995,17179,3848,-2018,-919,451,-397,24.57,35,66,3912,0,0,0
1777327004995,19973,5038,-2737,-1022,652,-491,24.57,35,66,3912,0,0,0
1777327005028,21500,5752,-3610,-1261,821,-630,24.57,35,66,3912,0,0,0
1777327005028,21310,5298,-5178,-1654,920,-863,24.57,35,66,3912,0,0,0
1777327005028,19909,3920,-6549,-2074,839,-1050,24.57,35,66,3912,0,0,0
1777327005062,18099,2638,-6855,-2408,642,-1164,24.57,35,66,3912,0,0,0
1777327005062,15906,691,-5351,-2470,271,-1345,24.57,35,66,3912,0,0,0
1777327005112,15402,-279,-4239,-2215,156,-1432,24.57,35,66,3912,0,0,0
1777327005112,16470,-967,-3303,-1809,170,-1429,24.57,35,66,3912,0,0,0
1777327005178,16236,-1859,-2845,-1336,288,-1312,24.57,35,66,3912,0,0,0
1777327005178,15808,-2025,-2994,-904,423,-1019,24.57,35,66,3912,0,0,0
1777327005211,15907,-1218,-3709,-692,511,-673,24.57,35,66,3912,0,0,0
1777327005212,15963,94,-4578,-784,540,-422,24.57,35,66,3912,0,0,0
1777327005212,16049,1357,-5458,-1090,483,-318,24.57,35,66,3912,0,0,0
1777327005245,15927,1751,-6067,-1485,338,-331,24.57,35,66,3912,0,0,0
1777327005245,14978,1326,-5654,-1816,162,-373,24.57,35,66,3912,0,0,0
1777327005312,14604,1054,-6007,-2012,4,-395,24.57,35,66,3912,0,0,0
1777327005312,14654,682,-5986,-2024,-176,-392,24.57,35,66,3912,0,0,0
1777327005345,14207,515,-5103,-1908,-306,-385,24.57,35,66,3912,0,0,0
1777327005345,14061,464,-4243,-1696,-314,-379,24.57,35,66,3912,0,0,0
1777327005378,14207,590,-3912,-1436,-254,-398,24.57,35,66,3912,0,0,0
1777327005378,14536,609,-3806,-1155,-209,-456,24.57,35,66,3912,0,0,0
1777327005378,14192,253,-3538,-916,-196,-520,24.57,35,66,3912,0,0,0
1777327005445,13914,-100,-3202,-758,-181,-565,24.57,35,66,3912,0,0,0
1777327005445,14405,-205,-3098,-641,-172,-614,24.57,35,66,3912,0,0,0
1777327005478,15159,-323,-2918,-520,-181,-669,24.57,35,66,3912,0,0,0
1777327005478,16206,-495,-2555,-365,-178,-725,24.57,35,66,3912,0,0,0
1777327005511,16891,-1080,-2258,-157,-151,-776,24.57,35,66,3912,0,0,0
1777327005511,17302,-2136,-2084,47,-98,-755,24.57,35,66,3912,0,0,0
1777327005578,17998,-2657,-2173,203,-21,-632,24.57,35,66,3912,0,0,0
1777327005578,21019,-1797,-2785,309,75,-403,24.57,35,66,3912,0,0,0
1777327005578,23344,-653,-3648,356,142,-154,24.57,35,66,3912,0,0,0
1777327005611,23951,-526,-4501,297,153,6,24.57,35,66,3912,0,0,0
1777327005611,22054,-1652,-5466,155,89,133,24.57,35,66,3912,0,0,0
1777327005678,19934,-2572,-5591,30,-22,359,24.57,35,66,3912,0,0,0
1777327005678,18643,-2367,-5730,77,-150,674,24.57,35,66,3912,0,0,0
1777327005711,17779,-1361,-5443,322,-363,976,24.57,35,66,3912,0,0,0
1777327005711,16788,25,-3756,691,-522,1131,24.57,35,66,3912,0,0,0
1777327005761,16555,897,-2405,1007,-434,1120,24.55,37,68,3911,0,0,0
1777327005761,16529,1157,-2019,1274,-219,1059,24.55,37,68,3911,0,0,0
1777327005761,16403,1168,-2382,1477,-5,1055,24.55,37,68,3911,0,0,0
1777327005794,16278,1362,-3180,1564,178,1080,24.55,37,68,3911,0,0,0
1777327005794,16489,1835,-3989,1548,282,1120,24.55,37,68,3911,0,0,0
1777327005828,16883,2282,-4572,1478,313,1136,24.55,37,68,3911,0,0,0
1777327005828,17046,2465,-4909,1364,303,1115,24.55,37,68,3911,0,0,0
1777327005895,16539,2043,-4752,1253,271,1074,24.55,37,68,3911,0,0,0
1777327005895,15663,1483,-4941,1100,223,1077,24.55,37,68,3911,0,0,0
1777327005928,15205,1253,-5171,955,171,1144,24.55,37,68,3911,0,0,0
1777327005928,15097,1761,-5209,862,112,1226,24.55,37,68,3911,0,0,0
1777327005928,15454,2601,-5085,813,43,1249,24.55,37,68,3911,0,0,0
1777327005961,15455,3042,-4507,770,-15,1179,24.55,37,68,3911,0,0,0
1777327005961,15043,2856,-4043,741,-14,1095,24.55,37,68,3911,0,0,0
1777327006028,14927,2825,-3955,702,31,1061,24.55,37,68,3911,0,0,0
1777327006028,15085,3197,-4043,656,65,1034,24.55,37,68,3911,0,0,0
1777327006061,14905,3554,-3894,635,70,955,24.55,37,68,3911,0,0,0
1777327006061,14719,3779,-3620,620,62,837,24.55,37,68,3911,0,0,0
1777327006128,14828,3938,-3306,574,85,709,24.55,37,68,3911,0,0,0
1777327006128,15598,4321,-3216,508,129,591,24.55,37,68,3911,0,0,0
1777327006128,16679,4580,-3229,409,163,448,24.55,37,68,3911,0,0,0
1777327006161,16859,4334,-2993,275,145,280,24.55,37,68,3911,0,0,0
1777327006161,16619,3704,-2526,113,127,125,24.55,37,68,3911,0,0,0
1777327006194,18717,4473,-2428,-23,187,59,24.55,37,68,3911,0,0,0
1777327006195,21349,6254,-2523,-232,261,-22,24.55,37,68,3911,0,0,0
1777327006261,19898,6350,-3372,-523,347,-211,24.55,37,68,3911,0,0,0
1777327006261,16098,4338,-4474,-930,236,-582,24.55,37,68,3911,0,0,0
1777327006294,13718,1900,-4798,-1183,-46,-878,24.55,37,68,3911,0,0,0
1777327006294,12550,543,-3459,-1175,-362,-1007,24.55,37,68,3911,0,0,0
1777327006294,13098,369,-1263,-889,-495,-1064,24.55,37,68,3911,0,0,0
1777327006328,14868,250,95,-437,-405,-1109,24.55,37,68,3911,0,0,0
1777327006328,15531,72,888,12,-187,-1099,24.55,37,68,3911,0,0,0
1777327006394,15869,-320,846,284,92,-966,24.55,37,68,3911,0,0,0
1777327006394,15006,-86,186,250,360,-743,24.55,37,68,3911,0,0,0
1777327006461,13906,769,-1340,-98,550,-547,24.55,37,68,3911,0,0,0
1777327006461,13932,1741,-3321,-672,510,-489,24.55,37,68,3911,0,0,0
1777327006461,13723,2229,-4479,-1331,258,-556,24.55,37,68,3911,0,0,0
1777327006461,12143,2267,-4249,-1928,-37,-677,24.55,37,68,3911,0,0,0
1777327006461,13886,1890,-4326,-2277,-269,-821,24.55,37,68,3911,0,0,0
1777327006527,13620,1530,-3612,-2451,-391,-952,24.55,37,68,3911,0,0,0
1777327006527,14159,1441,-3168,-2304,-372,-1050,24.55,37,68,3911,0,0,0
1777327006561,14763,1111,-2758,-1964,-272,-1158,24.55,37,68,3911,0,0,0
1777327006561,15233,593,-2624,-1579,-120,-1252,24.55,37,68,3911,0,0,0
1777327006594,15814,65,-2910,-1208,9,-1309,24.55,37,68,3911,0,0,0
1777327006595,16357,-560,-3028,-902,107,-1326,24.55,37,68,3911,0,0,0
1777327006661,16574,-1063,-3059,-676,194,-1293,24.55,37,68,3911,0,0,0
1777327006661,16929,-1373,-3526,-518,249,-1212,24.55,37,68,3911,0,0,0
1777327006661,17684,-1312,-3956,-423,218,-1109,24.55,37,68,3911,0,0,0
1777327006694,18517,-1130,-4024,-384,148,-1042,24.55,37,68,3911,0,0,0
1777327006694,19405,-1309,-4145,-378,94,-1013,24.55,37,68,3911,0,0,0
1777327006727,19826,-2072,-3805,-361,43,-952,24.54,37,69,3912,0,0,0
1777327006727,19668,-2989,-4265,-319,20,-781,24.54,37,69,3912,0,0,0
1777327006794,19611,-3319,-4839,-285,-27,-535,24.54,37,69,3912,0,0,0
1777327006794,21013,-2571,-5320,-251,-71,-247,24.54,37,69,3912,0,0,0
1777327006828,23017,-1231,-5814,-199,-147,19,24.54,37,69,3912,0,0,0
1777327006828,23781,-451,-5800,-122,-211,170,24.54,37,69,3912,0,0,0
1777327006828,22161,-821,-5580,-2,-250,217,24.54,37,69,3912,0,0,0
1777327006894,19946,-1790,-5233,155,-237,272,24.54,37,69,3912,0,0,0
1777327006894,18420,-2573,-5316,417,-215,408,24.54,37,69,3912,0,0,0
1777327006928,17398,-2555,-4962,830,-261,647,24.54,37,69,3912,0,0,0
1777327006928,16911,-1791,-3975,1283,-265,919,24.54,37,69,3912,0,0,0
1777327006961,16680,-545,-3143,1644,-123,1103,24.54,37,69,3912,0,0,0
1777327006961,17127,387,-3546,1890,82,1169,24.54,37,69,3912,0,0,0
1777327007028,17188,719,-4115,2016,208,1211,24.54,37,69,3912,0,0,0
1777327007028,16855,978,-4669,2007,263,1294,24.54,37,69,3912,0,0,0
1777327007028,16837,1506,-5172,1879,280,1382,24.54,37,69,3912,0,0,0
1777327007061,17338,1938,-5648,1679,224,1438,24.54,37,69,3912,0,0,0
1777327007061,17266,1942,-5358,1481,117,1456,24.54,37,69,3912,0,0,0
1777327007111,16561,1685,-4924,1216,1,1480,24.54,37,69,3912,0,0,0
1777327007111,15929,1484,-4613,1007,-54,1567,24.54,37,69,3912,0,0,0
1777327007161,15396,2081,-4217,858,-43,1669,24.54,37,69,3912,0,0,0
1777327007161,15595,3056,-4438,821,-8,1702,24.54,37,69,3912,0,0,0
1777327007211,15661,3842,-4433,880,-20,1625,24.54,37,69,3912,0,0,0
1777327007211,15322,4166,-4039,951,-15,1471,24.54,37,69,3912,0,0,0
1777327007211,15029,4241,-3605,992,60,1318,24.54,37,69,3912,0,0,0
1777327007244,15090,4173,-3727,982,157,1164,24.54,37,69,3912,0,0,0
1777327007244,15368,4160,-3895,935,196,1013,24.54,37,69,3912,0,0,0
1777327007290,15622,4212,-3741,861,188,870,24.54,37,69,3912,0,0,0
1777327007326,16475,4487,-3478,739,200,750,24.54,37,69,3912,0,0,0
1777327007326,17239,4734,-3423,587,239,623,24.54,37,69,3912,0,0,0
1777327007326,16970,4528,-3547,313,249,405,24.54,37,69,3912,0,0,0
1777327007359,16205,3948,-3627,135,205,253,24.54,37,69,3912,0,0,0
1777327007359,15956,3892,-3135,22,145,154,24.54,37,69,3912,0,0,0
1777327007359,17474,5039,-2599,-52,129,50,24.54,37,69,3912,0,0,0
1777327007425,18152,5470,-2245,-138,124,-147,24.54,37,69,3912,0,0,0
1777327007425,18047,5428,-1975,-286,150,-387,24.54,37,69,3912,0,0,0
1777327007458,17497,5014,-2113,-520,222,-631,24.54,37,69,3912,0,0,0
1777327007458,15418,3376,-2792,-743,193,-912,24.54,37,69,3912,0,0,0
1777327007491,14089,1714,-3186,-879,70,-1102,24.54,37,69,3912,0,0,0
1777327007491,13686,953,-2700,-869,-105,-1194,24.54,37,69,3912,0,0,0
1777327007558,14049,824,-1711,-749,-202,-1251,24.54,37,69,3912,0,0,0
1777327007558,15099,785,-941,-551,-186,-1324,24.54,37,69,3912,0,0,0
1777327007558,15569,622,-476,-328,-99,-1375,24.54,37,69,3912,0,0,0
1777327007591,15609,538,-519,-194,17,-1367,24.54,37,69,3912,0,0,0
1777327007591,15559,337,-1011,-244,139,-1318,24.54,37,69,3912,0,0,0
1777327007658,15066,210,-1735,-452,205,-1233,24.54,37,69,3912,0,0,0
1777327007658,14877,291,-2724,-810,223,-1107,24.54,37,69,3912,0,0,0
1777327007692,14847,585,-3575,-1230,152,-1006,24.54,37,69,3912,0,0,0
1777327007692,14665,807,-3773,-1586,52,-968,24.54,37,69,3912,0,0,0
1777327007741,14787,777,-4321,-1832,-88,-993,24.55,38,71,3913,0,0,0
1777327007741,14624,531,-4314,-1918,-205,-1031,24.55,38,71,3913,0,0,0
1777327007741,14882,477,-3913,-1829,-249,-1072,24.55,38,71,3913,0,0,0
1777327007775,15688,278,-3584,-1584,-226,-1115,24.55,38,71,3913,0,0,0
1777327007775,15997,-260,-3206,-1267,-184,-1160,24.55,38,71,3913,0,0,0
1777327007808,16004,-963,-2966,-957,-122,-1153,24.55,38,71,3913,0,0,0
1777327007875,16177,-1438,-3019,-722,-53,-1069,24.55,38,71,3913,0,0,0
1777327007875,16372,-1550,-3252,-567,-30,-963,24.55,38,71,3913,0,0,0
1777327007875,16797,-1355,-3432,-486,-81,-881,24.55,38,71,3913,0,0,0
1777327007908,17676,-1365,-3171,-454,-164,-855,24.55,38,71,3913,0,0,0
1777327007908,18146,-1805,-2525,-393,-203,-823,24.55,38,71,3913,0,0,0
1777327007908,18643,-2095,-2301,-277,-176,-730,24.55,38,71,3913,0,0,0
1777327007941,19044,-2338,-2467,-169,-101,-584,24.55,38,71,3913,0,0,0
1777327007941,18359,-2759,-3177,-79,-58,-403,24.55,38,71,3913,0,0,0
1777327008008,19235,-2215,-3930,-62,-70,-140,24.55,38,71,3913,0,0,0
1777327008008,21273,-565,-4489,-114,-100,112,24.55,38,71,3913,0,0,0
1777327008041,22966,923,-4615,-164,-139,208,24.55,38,71,3913,0,0,0
1777327008041,22887,861,-4636,-177,-152,129,24.55,38,71,3913,0,0,0
1777327008092,21075,-646,-4887,-82,-131,59,24.55,38,71,3913,0,0,0
1777327008092,18920,-1981,-4987,179,-104,164,24.55,38,71,3913,0,0,0
1777327008092,17290,-2175,-4561,553,-54,390,24.55,38,71,3913,0,0,0
1777327008125,16895,-1484,-4680,991,46,625,24.55,38,71,3913,0,0,0
1777327008125,16862,-422,-4541,1421,108,781,24.55,38,71,3913,0,0,0
1777327008176,16771,144,-4384,1693,196,839,24.55,38,71,3913,0,0,0
1777327008176,16779,233,-4761,1740,319,892,24.55,38,71,3913,0,0,0
1777327008241,16735,330,-5662,1653,387,992,24.55,38,71,3913,0,0,0
1777327008241,16452,573,-6260,1543,346,1119,24.55,38,71,3913,0,0,0
1777327008275,15763,956,-6033,1409,253,1229,24.55,38,71,3913,0,0,0
1777327008275,16000,1136,-6409,1276,162,1299,24.55,38,71,3913,0,0,0
1777327008275,16168,1430,-5997,1133,47,1363,24.55,38,71,3913,0,0,0
1777327008308,16086,1541,-5427,1022,-29,1412,24.55,38,71,3913,0,0,0
1777327008308,15648,1773,-4960,925,-38,1470,24.55,38,71,3913,0,0,0
1777327008374,15614,2310,-5121,853,6,1514,24.55,38,71,3913,0,0,0
1777327008374,15465,2954,-5296,849,-4,1505,24.55,38,71,3913,0,0,0
1777327008407,15568,3415,-5203,864,-23,1440,24.55,38,71,3913,0,0,0
1777327008408,15120,3565,-4681,882,-46,1332,24.55,38,71,3913,0,0,0
1777327008441,14861,3633,-4322,874,-17,1155,24.55,38,71,3913,0,0,0
1777327008507,14720,3629,-4078,847,-2,1019,24.55,38,71,3913,0,0,0
1777327008507,14963,3656,-3766,825,4,884,24.55,38,71,3913,0,0,0
1777327008507,15650,3844,-3316,795,49,775,24.55,38,71,3913,0,0,0
1777327008541,16637,4137,-3421,718,151,679,24.55,38,71,3913,0,0,0
1777327008541,17549,4273,-3568,594,232,587,24.55,38,71,3913,0,0,0
1777327008541,17572,4159,-4036,427,264,460,24.55,38,71,3913,0,0,0
1777327008641,16734,3750,-4212,228,209,321,24.55,38,71,3913,0,0,0
1777327008641,17006,3993,-4000,45,106,202,24.55,38,71,3913,0,0,0
1777327008641,18581,5096,-3379,-92,20,83,24.55,38,71,3913,0,0,0
1777327008641,19269,5557,-2359,-194,-16,-154,24.55,38,71,3913,0,0,0
1777327008641,18610,5075,-1779,-322,39,-417,24.55,38,71,3913,0,0,0
1777327008674,17126,3867,-1646,-501,133,-647,24.55,38,71,3913,0,0,0
1777327008674,15599,2575,-2478,-639,166,-817,24.55,38,71,3913,0,0,0
1777327008709,14235,1494,-2503,-673,44,-934,24.54,39,73,3913,0,0,0
1777327008709,13607,1131,-1652,-636,-69,-1024,24.54,39,73,3913,0,0,0
1777327008774,14174,1059,-1049,-538,-82,-1124,24.54,39,73,3913,0,0,0
1777327008774,15531,978,-1135,-387,-25,-1226,24.54,39,73,3913,0,0,0
1777327008807,16410,555,-1310,-227,46,-1262,24.54,39,73,3913,0,0,0
1777327008807,16241,175,-1587,-137,143,-1194,24.54,39,73,3913,0,0,0
1777327008807,15901,167,-2165,-204,213,-1071,24.54,39,73,3913,0,0,0
1777327008875,15000,143,-2852,-422,226,-976,24.54,39,73,3913,0,0,0
1777327008875,14555,271,-3563,-708,163,-891,24.54,39,73,3913,0,0,0
1777327008908,14518,493,-3529,-981,41,-849,24.54,39,73,3913,0,0,0
1777327008908,14301,421,-3600,-1142,-95,-848,24.54,39,73,3913,0,0,0
1777327008941,13820,281,-3318,-1275,-187,-866,24.54,39,73,3913,0,0,0
1777327008942,13753,59,-2962,-1308,-221,-873,24.54,39,73,3913,0,0,0
1777327009007,14063,-75,-2521,-1262,-199,-875,24.54,39,73,3913,0,0,0
1777327009007,14408,-148,-2501,-1143,-149,-871,24.54,39,73,3913,0,0,0
1777327009007,14830,-310,-2424,-1011,-111,-877,24.54,39,73,3913,0,0,0
1777327009041,14884,-623,-2273,-906,-71,-880,24.54,39,73,3913,0,0,0
1777327009041,14943,-939,-2556,-837,-15,-865,24.54,39,73,3913,0,0,0
1777327009074,15249,-1211,-3029,-771,-31,-823,24.54,39,73,3913,0,0,0
1777327009074,15380,-1454,-3155,-724,-89,-772,24.54,39,73,3913,0,0,0
1777327009174,15867,-1449,-3062,-686,-149,-714,24.54,39,73,3913,0,0,0
1777327009174,16796,-1153,-2920,-607,-186,-672,24.54,39,73,3913,0,0,0
1777327009174,17636,-1193,-2698,-443,-195,-661,24.54,39,73,3913,0,0,0
1777327009174,18243,-1583,-2749,-264,-172,-623,24.54,39,73,3913,0,0,0
1777327009174,18400,-2162,-2977,-141,-142,-500,24.54,39,73,3913,0,0,0
1777327009208,19448,-1813,-3416,-101,-99,-291,24.54,39,73,3913,0,0,0
1777327009208,22191,-279,-4039,-108,-47,-50,24.54,39,73,3913,0,0,0
1777327009274,24899,1413,-4713,-155,-33,93,24.54,39,73,3913,0,0,0
1777327009274,24860,1291,-5304,-268,-49,94,24.54,39,73,3913,0,0,0
1777327009324,21991,-366,-5771,-341,-100,91,24.54,39,73,3913,0,0,0
1777327009324,19249,-1674,-5308,-247,-157,212,24.54,39,73,3913,0,0,0
1777327009358,16855,-2186,-5330,-17,-227,402,24.54,39,73,3913,0,0,0
1777327009358,15786,-1780,-4313,415,-344,607,24.54,39,73,3913,0,0,0
1777327009358,15391,-805,-2535,916,-331,761,24.54,39,73,3913,0,0,0
1777327009391,15608,225,-1797,1317,-80,812,24.54,39,73,3913,0,0,0
1777327009391,16527,781,-2621,1576,200,795,24.54,39,73,3913,0,0,0
1777327009458,17245,564,-3837,1645,363,766,24.54,39,73,3913,0,0,0
1777327009458,16808,-103,-5014,1529,395,796,24.54,39,73,3913,0,0,0
1777327009491,16079,-663,-5560,1304,306,938,24.54,39,73,3913,0,0,0
1777327009491,15544,-407,-5575,1026,206,1135,24.54,39,73,3913,0,0,0
1777327009524,15666,443,-5403,783,96,1278,24.54,39,73,3913,0,0,0
1777327009524,15469,1187,-5174,687,-5,1306,24.54,39,73,3913,0,0,0
1777327009524,14981,1749,-4347,655,-93,1287,24.54,39,73,3913,0,0,0
1777327009591,14742,1918,-4042,678,-32,1269,24.54,39,73,3913,0,0,0
1777327009591,14516,2267,-4008,728,54,1244,24.54,39,73,3913,0,0,0
1777327009624,14406,2664,-4271,812,123,1176,24.54,39,73,3913,0,0,0
1777327009624,14806,2861,-4507,892,179,1050,24.54,39,73,3913,0,0,0
1777327009675,14861,2678,-4721,902,172,907,24.54,39,73,3913,0,0,0
1777327009675,14601,2293,-4324,860,146,799,24.54,39,73,3913,0,0,0
1777327009774,14780,2326,-4143,793,147,732,24.54,39,73,3913,0,0,0
1777327009774,15974,2934,-4036,692,167,669,24.54,39,73,3913,0,0,0
1777327009774,16848,3331,-3811,569,177,563,24.53,40,74,3891,0,0,0
1777327009774,17493,3455,-3941,418,210,469,24.53,40,74,3891,0,0,0
1777327009774,17522,3459,-4050,236,209,372,24.53,40,74,3891,0,0,0
1777327009792,17014,3126,-4313,21,164,258,24.53,40,74,3891,0,0,0
1777327009792,16414,2710,-4086,-179,55,154,24.53,40,74,3891,0,0,0
1777327009857,17585,3442,-3312,-304,-20,79,24.53,40,74,3891,0,0,0
1777327009857,18680,4160,-2779,-360,-44,-52,24.53,40,74,3891,0,0,0
1777327009891,18680,4217,-2142,-412,-1,-260,24.53,40,74,3891,0,0,0
1777327009891,18199,3572,-2244,-501,104,-473,24.53,40,74,3891,0,0,0
1777327009891,16779,2454,-3015,-606,152,-646,24.53,40,74,3891,0,0,0
1777327009925,14987,1454,-3316,-627,58,-746,24.53,40,74,3891,0,0,0
1777327009925,14022,968,-2550,-575,-68,-807,24.53,40,74,3891,0,0,0
1777327009991,13731,714,-1774,-468,-101,-891,24.53,40,74,3891,0,0,0
1777327009991,14338,502,-1775,-289,-63,-969,24.53,40,74,3891,0,0,0
1777327010024,15456,341,-1705,-3,-53,-1011,24.53,40,74,3891,0,0,0
1777327010024,16020,95,-1144,279,-42,-968,24.53,40,74,3891,0,0,0
1777327010058,15597,-183,-788,369,56,-833,24.53,40,74,3891,0,0,0
1777327010124,14912,103,-970,265,163,-648,24.53,40,74,3891,0,0,0
1777327010124,14137,598,-1700,-33,233,-487,24.53,40,74,3891,0,0,0
1777327010158,13968,1185,-2945,-446,194,-409,24.53,40,74,3891,0,0,0
1777327010158,13365,1370,-3299,-850,-7,-395,24.53,40,74,3891,0,0,0
1777327010158,13140,1198,-3265,-1147,-160,-408,24.53,40,74,3891,0,0,0
1777327010158,13217,1322,-2934,-1353,-264,-446,24.53,40,74,3891,0,0,0
1777327010224,13453,1265,-2582,-1402,-312,-502,24.53,40,74,3891,0,0,0
1777327010224,13573,1098,-2177,-1330,-272,-572,24.53,40,74,3891,0,0,0
1777327010257,14063,869,-2314,-1155,-195,-626,24.53,40,74,3891,0,0,0
1777327010257,14481,682,-2464,-967,-146,-672,24.53,40,74,3891,0,0,0
1777327010257,14490,454,-2596,-834,-105,-713,24.53,40,74,3891,0,0,0
1777327010358,14780,495,-2970,-776,-75,-748,24.53,40,74,3891,0,0,0
1777327010358,15072,315,-3295,-768,-113,-819,24.53,40,74,3891,0,0,0
1777327010358,15606,58,-3067,-767,-193,-889,24.53,40,74,3891,0,0,0
1777327010358,16510,-275,-2564,-724,-224,-936,24.53,40,74,3891,0,0,0
1777327010391,17632,-466,-2132,-611,-185,-951,24.53,40,74,3891,0,0,0
1777327010391,18692,-807,-2168,-451,-111,-935,24.53,40,74,3891,0,0,0
1777327010424,19122,-1282,-2378,-344,-54,-883,24.53,40,74,3891,0,0,0
1777327010424,19540,-1649,-2873,-362,22,-781,24.53,40,74,3891,0,0,0
1777327010424,21677,-966,-3919,-461,92,-601,24.53,40,74,3891,0,0,0
1777327010491,24021,210,-4812,-548,109,-431,24.53,40,74,3891,0,0,0
1777327010491,24847,572,-5392,-564,84,-379,24.53,40,74,3891,0,0,0
1777327010524,22972,-452,-5326,-502,50,-391,24.53,40,74,3891,0,0,0
1777327010574,20278,-1735,-4796,-334,88,-358,24.53,40,74,3891,0,0,0
1777327010574,18180,-3041,-5002,-47,134,-252,24.53,40,74,3891,0,0,0
1777327010574,17028,-3692,-4860,373,80,-65,24.53,40,74,3891,0,0,0
1777327010624,16285,-3773,-4054,844,-21,197,24.53,40,74,3891,0,0,0
1777327010624,15681,-3185,-2924,1217,-29,480,24.53,40,74,3891,0,0,0
1777327010624,15681,-2067,-2277,1420,91,711,24.53,40,74,3891,0,0,0
1777327010657,16003,-992,-2715,1472,267,851,24.53,40,74,3891,0,0,0
1777327010657,16443,-36,-4126,1428,389,955,24.53,40,74,3891,0,0,0
1777327010691,16893,111,-4880,1318,364,1001,24.53,40,74,3891,0,0,0
1777327010691,16873,68,-5092,1165,292,1062,24.53,40,74,3891,0,0,0
1777327010757,16352,48,-4552,1032,249,1154,24.54,41,76,3898,0,0,0
1777327010757,16080,182,-5025,882,226,1267,24.54,41,76,3898,0,0,0
1777327010791,15910,616,-5387,770,172,1375,24.54,41,76,3898,0,0,0
1777327010791,15689,1221,-5486,699,88,1435,24.54,41,76,3898,0,0,0
1777327010791,15408,1639,-5041,654,34,1427,24.54,41,76,3898,0,0,0
1777327010824,15230,1732,-4883,664,25,1393,24.54,41,76,3898,0,0,0
1777327010824,15204,1735,-4207,722,-25,1346,24.54,41,76,3898,0,0,0
1777327010890,15223,1771,-3410,760,28,1297,24.54,41,76,3898,0,0,0
1777327010890,15607,1834,-3982,711,168,1229,24.54,41,76,3898,0,0,0
1777327010925,15675,1877,-4705,648,169,1156,24.54,41,76,3898,0,0,0
1777327010925,15459,2045,-4383,599,116,1097,24.54,41,76,3898,0,0,0
1777327010959,16328,2735,-4044,564,106,1017,24.54,41,76,3898,0,0,0
1777327010959,17314,3348,-3678,519,117,873,24.54,41,76,3898,0,0,0
1777327010959,17892,3549,-3409,471,146,678,24.54,41,76,3898,0,0,0
1777327011010,17567,3072,-3284,413,177,496,24.54,41,76,3898,0,0,0
1777327011010,17524,2613,-3467,331,198,385,24.54,41,76,3898,0,0,0
1777327011092,17603,2775,-3378,248,145,320,24.54,41,76,3898,0,0,0
1777327011092,18598,3792,-2828,134,111,249,24.54,41,76,3898,0,0,0
1777327011092,19101,4358,-2908,-4,104,102,24.54,41,76,3898,0,0,0
1777327011092,18995,4537,-2396,-166,73,-63,24.54,41,76,3898,0,0,0
1777327011158,17202,4071,-2224,-403,88,-262,24.54,41,76,3898,0,0,0
1777327011158,15311,3153,-2715,-624,75,-448,24.54,41,76,3898,0,0,0
1777327011158,13940,2494,-2597,-668,-31,-604,24.54,41,76,3898,0,0,0
1777327011192,13344,2057,-1775,-535,-118,-747,24.54,41,76,3898,0,0,0
1777327011192,13716,1659,-1188,-282,-100,-905,24.54,41,76,3898,0,0,0
1777327011292,14817,1025,-1102,23,-17,-1010,24.54,41,76,3898,0,0,0
1777327011292,15330,374,-1173,302,53,-989,24.54,41,76,3898,0,0,0
1777327011292,15139,290,-1268,469,119,-842,24.54,41,76,3898,0,0,0
1777327011292,14299,555,-1502,436,157,-662,24.54,41,76,3898,0,0,0
1777327011292,13983,1386,-2089,182,164,-521,24.54,41,76,3898,0,0,0
1777327011325,13667,2000,-2591,-255,104,-482,24.54,41,76,3898,0,0,0
1777327011325,13360,2304,-3220,-740,-18,-511,24.54,41,76,3898,0,0,0
1777327011392,13411,2033,-3371,-1121,-142,-558,24.54,41,76,3898,0,0,0
1777327011392,13204,2059,-3191,-1437,-274,-637,24.54,41,76,3898,0,0,0
1777327011425,13616,1804,-3119,-1614,-340,-727,24.54,41,76,3898,0,0,0
1777327011425,14171,1481,-2772,-1609,-354,-827,24.54,41,76,3898,0,0,0
1777327011458,14278,1076,-2639,-1434,-311,-887,24.54,41,76,3898,0,0,0
1777327011458,14463,596,-2400,-1230,-215,-914,24.54,41,76,3898,0,0,0
1777327011525,14941,719,-2838,-1068,-127,-929,24.54,41,76,3898,0,0,0
1777327011525,15430,783,-3113,-955,-114,-980,24.54,41,76,3898,0,0,0
1777327011525,15742,447,-3240,-893,-145,-1053,24.54,41,76,3898,0,0,0
1777327011558,15863,168,-2819,-846,-186,-1103,24.54,41,76,3898,0,0,0
1777327011558,17193,209,-2674,-811,-173,-1141,24.54,41,76,3898,0,0,0
1777327011591,18873,-76,-2863,-742,-148,-1185,24.54,41,76,3898,0,0,0
1777327011592,19763,-543,-2736,-638,-151,-1179,24.54,41,76,3898,0,0,0
1777327011658,19998,-1219,-2759,-590,-116,-1137,24.54,41,76,3898,0,0,0
1777327011658,19899,-1875,-2884,-619,-68,-1062,24.54,41,76,3898,0,0,0
1777327011725,20351,-2303,-3682,-679,-30,-921,24.54,41,76,3898,0,0,0
1777327011725,21814,-1760,-4321,-736,-53,-709,24.54,41,76,3898,0,0,0
1777327011725,22635,-738,-4243,-759,-88,-542,24.53,42,78,3901,0,0,0
1777327011725,22790,-459,-4232,-775,-69,-503,24.53,42,78,3901,0,0,0
1777327011725,21502,-1659,-4584,-724,-37,-558,24.53,42,78,3901,0,0,0
1777327011841,18689,-3882,-4475,-376,-24,-460,24.53,42,78,3901,0,0,0
1777327011841,17909,-4454,-4362,-9,4,-266,24.53,42,78,3901,0,0,0
1777327011841,17651,-4575,-3707,496,2,45,24.53,42,78,3901,0,0,0
1777327011841,16974,-3950,-2754,1028,64,398,24.53,42,78,3901,0,0,0
1777327011874,16865,-2834,-2371,1438,268,682,24.53,42,78,3901,0,0,0
1777327011874,17278,-1854,-3387,1634,487,845,24.53,42,78,3901,0,0,0
1777327011875,17828,-1465,-4553,1622,552,959,24.53,42,78,3901,0,0,0
1777327011908,17690,-1415,-5042,1481,482,1108,24.53,42,78,3901,0,0,0
1777327011908,17253,-1343,-4905,1235,396,1310,24.53,42,78,3901,0,0,0
1777327011975,17095,-1006,-4787,949,381,1506,24.53,42,78,3901,0,0,0
1777327011975,17173,-445,-5199,751,361,1657,24.53,42,78,3901,0,0,0
1777327012008,17239,49,-6152,663,228,1785,24.53,42,78,3901,0,0,0
1777327012008,16398,604,-5701,589,65,1884,24.53,42,78,3901,0,0,0
1777327012058,16074,1368,-5208,539,-3,1939,24.53,42,78,3901,0,0,0
1777327012058,16196,2132,-4869,561,-17,1928,24.53,42,78,3901,0,0,0
1777327012058,16195,2822,-4472,668,-14,1853,24.53,42,78,3901,0,0,0
1777327012108,15520,3042,-3911,815,39,1726,24.53,42,78,3901,0,0,0
1777327012108,15052,2916,-3928,926,138,1596,24.53,42,78,3901,0,0,0
1777327012142,15289,3071,-4239,974,205,1488,24.53,42,78,3901,0,0,0
1777327012142,16567,3630,-4546,968,197,1364,24.53,42,78,3901,0,0,0
1777327012242,17472,3810,-4120,903,155,1182,24.53,42,78,3901,0,0,0
1777327012242,17937,3558,-3570,795,177,1024,24.53,42,78,3901,0,0,0
1777327012242,18442,3395,-3608,649,229,931,24.53,42,78,3901,0,0,0
1777327012242,18308,3308,-3936,456,229,854,24.53,42,78,3901,0,0,0
1777327012242,17257,3130,-4134,230,151,759,24.53,42,78,3901,0,0,0
1777327012275,16517,3320,-3615,54,22,633,24.53,42,78,3901,0,0,0
1777327012275,17432,4049,-2792,-28,-50,482,24.53,42,78,3901,0,0,0
1777327012324,18188,4621,-1755,-45,-59,286,24.53,42,78,3901,0,0,0
1777327012324,18327,4834,-1500,-77,23,16,24.53,42,78,3901,0,0,0
1777327012357,16981,3884,-1812,-200,124,-275,24.53,42,78,3901,0,0,0
1777327012357,14416,2168,-2705,-336,141,-519,24.53,42,78,3901,0,0,0
1777327012424,13086,1010,-2976,-352,3,-621,24.53,42,78,3901,0,0,0
1777327012424,12498,762,-2065,-275,-176,-650,24.53,42,78,3901,0,0,0
1777327012457,12740,973,-1288,-173,-248,-688,24.53,42,78,3901,0,0,0
1777327012457,13409,1411,-674,-60,-243,-770,24.53,42,78,3901,0,0,0
1777327012457,14431,1678,-553,19,-175,-846,24.53,42,78,3901,0,0,0
1777327012490,14922,1463,-758,1,-98,-886,24.53,42,78,3901,0,0,0
1777327012490,14335,1045,-777,-114,-1,-851,24.53,42,78,3901,0,0,0
1777327012557,13353,1093,-1348,-312,91,-759,24.53,42,78,3901,0,0,0
1777327012557,13087,1545,-2377,-619,111,-716,24.53,42,78,3901,0,0,0
1777327012590,13134,1950,-2979,-977,41,-784,24.53,42,78,3901,0,0,0
1777327012590,13132,1871,-3363,-1220,-78,-917,24.53,42,78,3901,0,0,0
1777327012590,13128,1552,-3153,-1382,-203,-1053,24.53,42,78,3901,0,0,0
1777327012624,13704,1201,-2955,-1431,-247,-1143,24.53,42,78,3901,0,0,0
1777327012624,14323,1189,-2644,-1385,-232,-1220,24.53,42,78,3901,0,0,0
1777327012691,15240,1150,-2755,-1270,-188,-1318,24.53,42,78,3901,0,0,0
1777327012691,15668,790,-2815,-1172,-163,-1430,24.53,42,78,3901,0,0,0
1777327012741,16137,276,-2855,-1116,-122,-1501,24.54,42,79,3893,0,0,0
1777327012741,16962,-32,-3086,-1051,-77,-1521,24.54,42,79,3893,0,0,0
1777327012774,17348,-457,-3277,-957,-65,-1513,24.54,42,79,3893,0,0,0
1777327012774,17497,-676,-3340,-850,-75,-1484,24.54,42,79,3893,0,0,0
1777327012774,18377,-596,-3427,-722,-76,-1473,24.54,42,79,3893,0,0,0
1777327012807,19977,-543,-3643,-575,-90,-1484,24.54,42,79,3893,0,0,0
1777327012807,21430,-1046,-3698,-457,-130,-1493,24.54,42,79,3893,0,0,0
1777327012874,21420,-2064,-3464,-416,-144,-1438,24.54,42,79,3893,0,0,0
1777327012874,21641,-2847,-3565,-425,-98,-1264,24.54,42,79,3893,0,0,0
1777327012907,24695,-1762,-4819,-402,-38,-798,24.54,42,79,3893,0,0,0
1777327012907,25371,-896,-5251,-415,-68,-568,24.54,42,79,3893,0,0,0
1777327012957,23791,-1310,-5308,-506,-100,-483,24.54,42,79,3893,0,0,0
1777327012957,21545,-2647,-5225,-531,-122,-403,24.54,42,79,3893,0,0,0
1777327012957,19483,-3610,-5297,-390,-163,-193,24.54,42,79,3893,0,0,0
1777327012990,17564,-3881,-4693,-54,-277,59,24.54,42,79,3893,0,0,0
1777327012990,15858,-3527,-3197,453,-376,306,24.54,42,79,3893,0,0,0
1777327013057,14966,-2657,-1102,993,-290,505,24.54,42,79,3893,0,0,0
1777327013057,15464,-1847,-712,1443,10,613,24.54,42,79,3893,0,0,0
1777327013091,16210,-1434,-1233,1735,277,689,24.54,42,79,3893,0,0,0
1777327013091,16138,-1319,-2100,1800,512,812,24.54,42,79,3893,0,0,0
1777327013124,16121,-935,-3523,1733,661,994,24.54,42,79,3893,0,0,0
1777327013124,16244,-162,-4416,1605,659,1180,24.54,42,79,3893,0,0,0
1777327013124,16477,458,-4780,1398,612,1299,24.54,42,79,3893,0,0,0
1777327013190,16830,676,-4877,1149,565,1364,24.54,42,79,3893,0,0,0
1777327013190,16902,594,-4154,957,505,1443,24.54,42,79,3893,0,0,0
1777327013223,16559,130,-4263,746,474,1584,24.54,42,79,3893,0,0,0
1777327013323,16262,434,-4396,508,483,1776,24.54,42,79,3893,0,0,0
1777327013323,16498,1360,-5034,307,488,1917,24.54,42,79,3893,0,0,0
1777327013323,16967,2519,-5669,200,401,1946,24.54,42,79,3893,0,0,0
1777327013323,16488,2915,-5454,188,250,1855,24.54,42,79,3893,0,0,0
1777327013323,16083,2999,-4836,220,193,1736,24.54,42,79,3893,0,0,0
1777327013323,16028,3085,-5068,256,190,1638,24.54,42,79,3893,0,0,0
1777327013373,16382,3425,-5153,324,143,1530,24.54,42,79,3893,0,0,0
1777327013373,16955,3843,-4881,376,93,1387,24.54,42,79,3893,0,0,0
1777327013440,17790,4074,-4557,401,56,1221,24.54,42,79,3893,0,0,0
1777327013440,18216,3894,-4269,382,60,1084,24.54,42,79,3893,0,0,0
1777327013440,18160,3801,-4233,299,64,974,24.54,42,79,3893,0,0,0
1777327013440,17563,3798,-4460,168,23,871,24.54,42,79,3893,0,0,0
1777327013441,16622,3988,-4130,47,-85,738,24.54,42,79,3893,0,0,0
1777327013507,17079,4745,-3549,-37,-167,581,24.54,42,79,3893,0,0,0
1777327013507,18304,5323,-2729,-100,-209,363,24.54,42,79,3893,0,0,0
1777327013540,18899,5530,-1925,-179,-161,92,24.54,42,79,3893,0,0,0
1777327013540,17181,4804,-1181,-286,-65,-153,24.54,42,79,3893,0,0,0
1777327013573,15342,3825,-1878,-468,73,-379,24.54,42,79,3893,0,0,0
1777327013573,13757,2611,-2763,-604,8,-608,24.54,42,79,3893,0,0,0
1777327013639,12597,1563,-2357,-623,-175,-767,24.54,42,79,3893,0,0,0
1777327013639,12439,887,-1421,-537,-282,-887,24.54,42,79,3893,0,0,0
1777327013707,13054,565,-860,-350,-305,-1000,24.54,42,79,3893,0,0,0
1777327013707,14108,331,-165,-86,-283,-1075,24.54,42,79,3893,0,0,0
1777327013773,14451,81,223,141,-176,-1047,24.54,42,79,3893,0,0,0
1777327013773,14430,277,-101,188,6,-935,24.54,42,79,3893,0,0,0
1777327013773,14257,687,-1285,68,134,-840,24.55,43,81,3896,0,0,0
1777327013773,14066,1299,-2731,-223,135,-787,24.55,43,81,3896,0,0,0
1777327013773,14446,1595,-3823,-660,4,-802,24.55,43,81,3896,0,0,0
1777327013856,13990,1164,-3776,-1150,-191,-837,24.55,43,81,3896,0,0,0
1777327013856,13749,1188,-3754,-1479,-284,-835,24.55,43,81,3896,0,0,0
1777327013856,14375,1592,-3517,-1734,-349,-865,24.55,43,81,3896,0,0,0
1777327013856,14288,1536,-3293,-1780,-357,-980,24.55,43,81,3896,0,0,0
1777327013856,14438,1255,-2969,-1654,-311,-1098,24.55,43,81,3896,0,0,0
1777327013906,14812,781,-3222,-1422,-227,-1197,24.55,43,81,3896,0,0,0
1777327013906,15126,427,-3339,-1186,-153,-1279,24.55,43,81,3896,0,0,0
1777327013957,15569,43,-3546,-973,-90,-1347,24.55,43,81,3896,0,0,0
1777327013957,16001,-150,-3761,-799,-28,-1392,24.55,43,81,3896,0,0,0
1777327013990,16774,-542,-4108,-648,-1,-1439,24.55,43,81,3896,0,0,0
1777327013990,17969,-914,-4364,-442,-55,-1443,24.55,43,81,3896,0,0,0
1777327014023,19386,-1300,-4338,-368,-92,-1428,24.55,43,81,3896,0,0,0
1777327014023,20174,-1655,-3716,-313,-89,-1361,24.55,43,81,3896,0,0,0
1777327014023,20551,-2281,-3633,-272,-7,-1280,24.55,43,81,3896,0,0,0
1777327014123,21459,-2851,-4335,-281,97,-1109,24.55,43,81,3896,0,0,0
1777327014123,23958,-2423,-5256,-308,155,-823,24.55,43,81,3896,0,0,0
1777327014123,25142,-1679,-5948,-385,153,-521,24.55,43,81,3896,0,0,0
1777327014123,25053,-1306,-6266,-519,97,-324,24.55,43,81,3896,0,0,0
1777327014173,22858,-2165,-6056,-619,23,-227,24.55,43,81,3896,0,0,0
1777327014173,20539,-3545,-6063,-589,-37,-73,24.55,43,81,3896,0,0,0
1777327014207,18624,-4073,-5650,-358,-137,203,24.55,43,81,3896,0,0,0
1777327014207,17239,-3743,-4675,105,-190,517,24.55,43,81,3896,0,0,0
1777327014207,16186,-2760,-3672,703,-171,822,24.55,43,81,3896,0,0,0
1777327014273,16449,-1290,-3105,1210,-12,1017,24.55,43,81,3896,0,0,0
1777327014273,16401,-355,-3522,1510,193,1066,24.55,43,81,3896,0,0,0
1777327014307,16553,-102,-4502,1587,350,1119,24.55,43,81,3896,0,0,0
1777327014307,16355,108,-5311,1510,402,1213,24.55,43,81,3896,0,0,0
1777327014340,16405,401,-5933,1385,359,1330,24.55,43,81,3896,0,0,0
1777327014340,16029,697,-5757,1231,265,1417,24.55,43,81,3896,0,0,0
1777327014406,15461,911,-5502,1090,199,1501,24.55,43,81,3896,0,0,0
1777327014406,15618,1356,-5628,981,175,1558,24.55,43,81,3896,0,0,0
1777327014407,15835,1870,-5970,876,105,1568,24.55,43,81,3896,0,0,0
1777327014473,15514,2051,-5551,795,19,1563,24.55,43,81,3896,0,0,0
1777327014473,15312,2227,-5074,731,-7,1578,24.55,43,81,3896,0,0,0
1777327014473,15084,2682,-4714,711,27,1592,24.55,43,81,3896,0,0,0
1777327014473,15387,3288,-4792,722,90,1538,24.55,43,81,3896,0,0,0
1777327014540,15511,3439,-4907,727,107,1420,24.55,43,81,3896,0,0,0
1777327014540,15084,3310,-4767,731,87,1310,24.55,43,81,3896,0,0,0
1777327014573,14830,3454,-4561,673,95,1224,24.55,43,81,3896,0,0,0
1777327014573,15380,3880,-4614,572,100,1121,24.55,43,81,3896,0,0,0
1777327014573,16017,4262,-4526,469,79,980,24.55,43,81,3896,0,0,0
1777327014649,16679,4594,-4311,372,73,817,24.55,43,81,3896,0,0,0
1777327014649,17282,4598,-4034,266,65,621,24.55,43,81,3896,0,0,0
1777327014649,16614,3860,-3784,148,77,452,24.55,43,81,3896,0,0,0
1777327014649,17286,3909,-3841,37,95,363,24.55,43,81,3896,0,0,0
1777327014721,19025,5007,-3719,-38,75,265,24.55,43,81,3896,0,0,0
1777327014721,20376,5851,-3332,-109,83,126,24.55,43,81,3896,0,0,0
1777327014739,20733,6679,-3134,-251,143,-60,24.52,44,82,3898,0,0,0
1777327014739,16869,5450,-3325,-507,158,-396,24.52,44,82,3898,0,0,0
1777327014739,13563,3400,-3767,-716,82,-727,24.52,44,82,3898,0,0,0
1777327014805,12312,2316,-3442,-692,-115,-931,24.52,44,82,3898,0,0,0
1777327014805,12594,1992,-1986,-458,-293,-1092,24.52,44,82,3898,0,0,0
1777327014838,14207,1629,-962,-96,-278,-1250,24.52,44,82,3898,0,0,0
1777327014872,15776,1078,-376,325,-166,-1343,24.52,44,82,3898,0,0,0
1777327014905,16218,401,-147,617,9,-1272,24.52,44,82,3898,0,0,0
1777327014905,15439,457,-487,682,218,-1073,24.52,44,82,3898,0,0,0
1777327014938,14765,1231,-1471,517,392,-872,24.52,44,82,3898,0,0,0
1777327014938,14167,1991,-2703,148,397,-767,24.52,44,82,3898,0,0,0
1777327014938,13784,2301,-3718,-399,264,-772,24.52,44,82,3898,0,0,0
1777327014971,12694,2165,-3833,-946,57,-828,24.52,44,82,3898,0,0,0
1777327014971,13501,1973,-4569,-1355,-134,-890,24.52,44,82,3898,0,0,0
1777327015038,13676,1761,-4355,-1621,-301,-986,24.52,44,82,3898,0,0,0
1777327015038,13536,1495,-3787,-1618,-400,-1067,24.52,44,82,3898,0,0,0
1777327015071,14089,1284,-3035,-1457,-363,-1137,24.52,44,82,3898,0,0,0
1777327015071,14674,935,-2912,-1195,-256,-1217,24.52,44,82,3898,0,0,0
1777327015104,15141,373,-3089,-898,-164,-1266,24.52,44,82,3898,0,0,0
1777327015104,15100,-483,-3243,-610,-82,-1238,24.52,44,82,3898,0,0,0
1777327015104,15586,-558,-3399,-556,-65,-1178,24.52,44,82,3898,0,0,0
1777327015171,16307,-378,-3671,-577,-92,-1126,24.52,44,82,3898,0,0,0
1777327015204,17514,-80,-3545,-615,-152,-1110,24.52,44,82,3898,0,0,0
1777327015204,18809,-106,-3197,-616,-175,-1118,24.52,44,82,3898,0,0,0
1777327015204,19929,-349,-3274,-573,-155,-1099,24.52,44,82,3898,0,0,0
1777327015238,20339,-950,-3217,-565,-131,-1079,24.52,44,82,3898,0,0,0
1777327015238,20448,-1984,-3326,-620,-67,-1017,24.52,44,82,3898,0,0,0
1777327015304,22847,-1919,-4389,-689,40,-824,24.52,44,82,3898,0,0,0
1777327015304,25323,-1083,-5412,-661,54,-569,24.52,44,82,3898,0,0,0
1777327015304,25550,-972,-5823,-561,-14,-436,24.52,44,82,3898,0,0,0
1777327015354,23195,-2374,-5426,-444,-74,-398,24.52,44,82,3898,0,0,0
1777327015387,20895,-3740,-5124,-282,-40,-259,24.52,44,82,3898,0,0,0
1777327015387,18590,-4293,-4860,36,-18,-15,24.52,44,82,3898,0,0,0
1777327015387,17425,-3955,-4421,523,7,328,24.52,44,82,3898,0,0,0
1777327015421,17212,-2857,-3780,1044,65,667,24.52,44,82,3898,0,0,0
1777327015421,16949,-1495,-3256,1435,231,861,24.52,44,82,3898,0,0,0
1777327015488,16751,-896,-3681,1619,465,938,24.52,44,82,3898,0,0,0
1777327015488,16663,-799,-4999,1618,603,1025,24.52,44,82,3898,0,0,0
1777327015488,16070,-650,-5882,1481,609,1170,24.52,44,82,3898,0,0,0
1777327015520,15827,-212,-6343,1311,544,1319,24.52,44,82,3898,0,0,0
1777327015520,15519,274,-6301,1169,429,1443,24.52,44,82,3898,0,0,0
1777327015571,15720,638,-6859,1023,295,1567,24.52,44,82,3898,0,0,0
1777327015571,16035,1319,-6627,878,160,1676,24.52,44,82,3898,0,0,0
1777327015621,16059,2024,-5932,778,76,1734,24.52,44,82,3898,0,0,0
1777327015621,16418,2653,-5396,763,75,1741,24.52,44,82,3898,0,0,0
1777327015787,16267,3090,-5012,825,133,1700,24.52,44,82,3898,0,0,0
1777327015787,15967,3403,-5287,883,219,1646,24.52,44,82,3898,0,0,0
1777327015787,15874,3447,-5528,895,256,1591,24.52,44,82,3898,0,0,0
1777327015787,15465,3402,-5413,858,249,1519,24.52,45,84,3901,0,0,0
1777327015787,15324,3590,-5602,780,229,1439,24.52,45,84,3901,0,0,0
1777327015787,15241,3792,-5167,669,136,1318,24.52,45,84,3901,0,0,0
1777327015787,15719,4061,-4922,555,74,1190,24.52,45,84,3901,0,0,0
1777327015787,16865,4370,-4409,470,30,1080,24.52,45,84,3901,0,0,0
1777327015787,18001,4884,-3807,404,60,959,24.52,45,84,3901,0,0,0
1777327015787,17862,4735,-3572,351,124,818,24.52,45,84,3901,0,0,0
1777327015821,16976,4372,-3844,262,173,667,24.52,45,84,3901,0,0,0
1777327015821,17417,4445,-4029,175,153,529,24.52,45,84,3901,0,0,0
1777327015887,18779,5203,-3588,103,81,400,24.52,45,84,3901,0,0,0
1777327015887,19053,5804,-2638,-26,58,257,24.52,45,84,3901,0,0,0
1777327015921,19143,6052,-2586,-237,129,97,24.52,45,84,3901,0,0,0
1777327015921,17392,5596,-3109,-507,128,-143,24.52,45,84,3901,0,0,0
1777327015954,14773,4403,-3214,-711,5,-414,24.52,45,84,3901,0,0,0
1777327015954,12561,3136,-2426,-718,-148,-641,24.52,45,84,3901,0,0,0
1777327016021,12254,2261,-1549,-547,-212,-822,24.52,45,84,3901,0,0,0
1777327016021,12933,1654,-924,-227,-203,-974,24.52,45,84,3901,0,0,0
1777327016021,14083,1192,-492,145,-156,-1055,24.52,45,84,3901,0,0,0
1777327016055,14722,955,-79,422,-73,-1023,24.52,45,84,3901,0,0,0
1777327016055,14519,1002,26,483,86,-902,24.52,45,84,3901,0,0,0
1777327016088,13990,1471,-527,310,228,-763,24.52,45,84,3901,0,0,0
1777327016088,13784,2160,-1487,-76,304,-697,24.52,45,84,3901,0,0,0
1777327016155,13596,2480,-2707,-553,262,-736,24.52,45,84,3901,0,0,0
1777327016155,13110,2126,-3411,-1030,117,-818,24.52,45,84,3901,0,0,0
1777327016188,13795,1770,-3891,-1386,-7,-887,24.52,45,84,3901,0,0,0
1777327016188,14065,1553,-4085,-1630,-149,-953,24.52,45,84,3901,0,0,0
1777327016188,14367,1270,-3935,-1731,-220,-997,24.52,45,84,3901,0,0,0
1777327016222,15000,966,-3709,-1662,-187,-1052,24.52,45,84,3901,0,0,0
1777327016222,15228,688,-3821,-1534,-138,-1083,24.52,45,84,3901,0,0,0
1777327016288,15472,524,-4138,-1422,-108,-1122,24.52,45,84,3901,0,0,0
1777327016288,15841,423,-4162,-1345,-110,-1179,24.52,45,84,3901,0,0,0
1777327016321,16298,43,-4176,-1280,-111,-1234,24.52,45,84,3901,0,0,0
1777327016321,16550,-439,-4169,-1223,-113,-1262,24.52,45,84,3901,0,0,0
1777327016388,16908,-838,-4169,-1145,-115,-1255,24.52,45,84,3901,0,0,0
1777327016388,17741,-851,-4060,-1063,-128,-1242,24.52,45,84,3901,0,0,0
1777327016388,19285,-790,-4124,-948,-111,-1257,24.52,45,84,3901,0,0,0
1777327016421,20514,-1363,-3990,-775,-85,-1273,24.52,45,84,3901,0,0,0
1777327016421,20850,-2357,-4073,-568,-24,-1237,24.52,45,84,3901,0,0,0
1777327016454,20602,-3324,-4662,-435,35,-1108,24.52,45,84,3901,0,0,0
1777327016454,21884,-3340,-5515,-363,33,-873,24.52,45,84,3901,0,0,0
1777327016521,24139,-2208,-5953,-292,-52,-620,24.52,45,84,3901,0,0,0
1777327016521,25101,-1638,-5738,-221,-140,-520,24.52,45,84,3901,0,0,0
1777327016555,23692,-2753,-5131,-102,-172,-514,24.52,45,84,3901,0,0,0
1777327016587,20632,-4510,-4523,98,-88,-415,24.52,45,84,3901,0,0,0
1777327016588,18694,-5384,-4621,439,7,-163,24.52,45,84,3901,0,0,0
1777327016588,17587,-5219,-4693,915,47,219,24.52,45,84,3901,0,0,0
1777327016588,17300,-4082,-4452,1448,45,642,24.52,45,84,3901,0,0,0
1777327016654,17228,-2402,-3861,1835,64,941,24.52,45,84,3901,0,0,0
1777327016654,17083,-1215,-3559,1981,171,1079,24.52,45,84,3901,0,0,0
1777327016704,16900,-560,-3827,1976,290,1167,24.52,45,84,3901,0,0,0
1777327016704,17367,-139,-4519,1908,375,1268,24.52,45,84,3901,0,0,0
1777327016704,18041,268,-5217,1807,345,1366,24.51,46,86,3901,0,0,0
1777327016771,16892,351,-4764,1631,272,1483,24.51,46,86,3901,0,0,0
1777327016771,16828,522,-4814,1429,297,1620,24.51,46,86,3901,0,0,0
1777327016771,16548,1043,-5427,1170,268,1759,24.51,46,86,3901,0,0,0
1777327016771,16778,1737,-5614,1004,226,1861,24.51,46,86,3901,0,0,0
1777327016838,17343,2480,-5805,898,174,1902,24.51,46,86,3901,0,0,0
1777327016838,17178,2921,-5591,848,102,1888,24.51,46,86,3901,0,0,0
1777327016871,16279,2939,-5219,797,97,1853,24.51,46,86,3901,0,0,0
1777327016871,15906,3133,-5218,753,140,1845,24.51,46,86,3901,0,0,0
1777327016904,15802,3491,-5267,744,177,1821,24.51,46,86,3901,0,0,0
1777327016904,15545,3922,-5221,760,181,1753,24.51,46,86,3901,0,0,0
1777327016904,15579,4316,-4992,780,161,1623,24.51,46,86,3901,0,0,0
1777327016971,16074,4774,-4460,787,163,1454,24.51,46,86,3901,0,0,0
1777327016971,16462,5066,-3957,770,196,1280,24.51,46,86,3901,0,0,0
1777327017004,16553,5209,-3901,708,253,1080,24.51,46,86,3901,0,0,0
1777327017004,16640,5191,-4206,585,296,861,24.51,46,86,3901,0,0,0
1777327017037,15849,4744,-4437,417,236,632,24.51,46,86,3901,0,0,0
1777327017037,15154,4460,-4238,236,109,435,24.51,46,86,3901,0,0,0
1777327017104,15029,4578,-3260,77,-18,229,24.51,46,86,3901,0,0,0
1777327017104,15851,5102,-2063,-22,-55,22,24.51,46,86,3901,0,0,0
1777327017104,16909,5675,-1403,-95,-7,-222,24.51,46,86,3901,0,0,0
1777327017171,17524,5693,-1060,-168,86,-530,24.51,46,86,3901,0,0,0
1777327017171,17806,5207,-1356,-318,193,-880,24.51,46,86,3901,0,0,0
1777327017171,17077,3917,-2076,-516,229,-1180,24.51,46,86,3901,0,0,0
1777327017171,15162,2083,-2589,-718,160,-1376,24.51,46,86,3901,0,0,0
1777327017238,14342,729,-2672,-881,38,-1434,24.51,46,86,3901,0,0,0
1777327017238,14508,165,-2550,-940,-74,-1425,24.51,46,86,3901,0,0,0
1777327017271,15167,151,-2087,-897,-157,-1402,24.51,46,86,3901,0,0,0
1777327017271,15793,179,-1680,-791,-151,-1385,24.51,46,86,3901,0,0,0
1777327017271,16056,182,-1610,-669,-73,-1337,24.51,46,86,3901,0,0,0
1777327017304,15701,279,-1822,-622,7,-1252,24.51,46,86,3901,0,0,0
1777327017304,14905,180,-2527,-852,123,-1121,24.51,46,86,3901,0,0,0
1777327017371,14548,228,-3284,-1135,144,-1002,24.51,46,86,3901,0,0,0
1777327017371,14169,562,-3894,-1433,111,-915,24.51,46,86,3901,0,0,0
1777327017404,14213,857,-4601,-1657,29,-896,24.51,46,86,3901,0,0,0
1777327017404,14300,930,-4931,-1849,-94,-955,24.51,46,86,3901,0,0,0
1777327017454,14309,581,-4773,-1931,-184,-1040,24.51,46,86,3901,0,0,0
1777327017454,14625,52,-4511,-1850,-230,-1088,24.51,46,86,3901,0,0,0
1777327017454,14864,-442,-4427,-1649,-227,-1077,24.51,46,86,3901,0,0,0
1777327017537,15404,-462,-4160,-1384,-213,-1053,24.51,46,86,3901,0,0,0
1777327017537,16074,-577,-3925,-1126,-171,-1052,24.51,46,86,3901,0,0,0
1777327017537,16175,-942,-3925,-910,-132,-1050,24.51,46,86,3901,0,0,0
1777327017537,16232,-1219,-4018,-747,-114,-1010,24.51,46,86,3901,0,0,0
1777327017604,17137,-1176,-4160,-612,-134,-979,24.51,46,86,3901,0,0,0
1777327017604,18012,-1224,-3713,-477,-189,-970,24.51,46,86,3901,0,0,0
1777327017637,18792,-1446,-3309,-337,-191,-950,24.51,46,86,3901,0,0,0
1777327017637,19659,-1763,-3257,-198,-166,-915,24.51,46,86,3901,0,0,0
1777327017637,19639,-2465,-3153,-122,-136,-851,24.51,46,86,3901,0,0,0
1777327017670,19409,-3179,-3634,-135,-77,-706,24.51,46,86,3901,0,0,0
1777327017670,20911,-2682,-4355,-169,-62,-458,24.51,46,86,3901,0,0,0
1777327017737,23300,-1093,-4771,-204,-93,-222,24.53,46,86,3902,0,0,0
1777327017737,24619,-355,-4733,-222,-112,-172,24.53,46,86,3902,0,0,0
1777327017755,23925,-1624,-5226,-167,-102,-222,24.53,46,86,3902,0,0,0
1777327017755,21248,-3514,-5269,-24,-110,-128,24.53,46,86,3902,0,0,0
1777327017820,19118,-4522,-5335,222,-129,150,24.53,46,86,3902,0,0,0
1777327017821,17606,-4095,-5090,614,-198,528,24.53,46,86,3902,0,0,0
1777327017821,17901,-2418,-3976,1112,-260,892,24.53,46,86,3902,0,0,0
1777327017854,18012,-670,-2948,1515,-155,1047,24.53,46,86,3902,0,0,0
1777327017854,18074,-61,-2820,1744,60,1057,24.53,46,86,3902,0,0,0
1777327017887,17643,-208,-3357,1802,294,1117,24.53,46,86,3902,0,0,0
1777327017887,17742,-23,-4849,1761,432,1264,24.53,46,86,3902,0,0,0
1777327017954,17518,613,-5388,1693,403,1416,24.53,46,86,3902,0,0,0
1777327017954,16893,1066,-5371,1577,341,1506,24.53,46,86,3902,0,0,0
1777327017987,16792,1313,-5565,1450,295,1563,24.53,46,86,3902,0,0,0
1777327017987,16408,1433,-5495,1269,243,1613,24.53,46,86,3902,0,0,0
1777327017987,16149,1673,-5345,1149,196,1687,24.53,46,86,3902,0,0,0
1777327018021,15996,2262,-5142,1018,173,1738,24.53,46,86,3902,0,0,0
1777327018021,15767,2942,-4779,940,170,1723,24.53,46,86,3902,0,0,0
1777327018088,15456,3354,-4585,925,208,1652,24.53,46,86,3902,0,0,0
1777327018088,15179,3443,-4485,932,260,1559,24.53,46,86,3902,0,0,0
1777327018121,14679,3508,-4447,929,313,1462,24.53,46,86,3902,0,0,0
1777327018121,14854,3681,-4532,871,365,1353,24.53,46,86,3902,0,0,0
1777327018221,14685,3531,-4312,783,366,1200,24.53,46,86,3902,0,0,0
1777327018221,14679,3354,-4099,703,373,1082,24.53,46,86,3902,0,0,0
1777327018221,15340,3846,-4242,609,378,990,24.53,46,86,3902,0,0,0
1777327018221,16127,4214,-4262,485,352,851,24.53,46,86,3902,0,0,0
1777327018221,16561,4461,-4184,327,322,686,24.53,46,86,3902,0,0,0
1777327018254,16927,4370,-4447,128,272,498,24.53,46,86,3902,0,0,0
1777327018255,16197,3569,-4363,-102,167,314,24.53,46,86,3902,0,0,0
1777327018354,15861,3125,-3899,-279,63,218,24.53,46,86,3902,0,0,0
1777327018354,17271,4131,-3036,-383,2,153,24.53,46,86,3902,0,0,0
1777327018354,18326,5274,-2345,-463,35,-15,24.53,46,86,3902,0,0,0
1777327018354,18797,5515,-2306,-548,117,-290,24.53,46,86,3902,0,0,0
1777327018354,18202,4769,-3094,-699,178,-577,24.53,46,86,3902,0,0,0
1777327018454,16055,3079,-3719,-858,119,-809,24.53,46,86,3902,0,0,0
1777327018454,14424,1541,-3774,-929,-26,-959,24.53,46,86,3902,0,0,0
1777327018454,13795,767,-3208,-882,-187,-1017,24.53,46,86,3902,0,0,0
1777327018454,14132,514,-1958,-641,-272,-1084,24.53,46,86,3902,0,0,0
1777327018487,15485,872,-1471,-384,-244,-1116,24.53,46,86,3902,0,0,0
1777327018487,15936,1002,-1174,-137,-168,-1144,24.53,46,86,3902,0,0,0
1777327018521,15648,878,-1110,-54,-71,-1136,24.53,46,86,3902,0,0,0
1777327018521,15140,451,-1533,-164,34,-1106,24.53,46,86,3902,0,0,0
1777327018521,14271,386,-1760,-394,77,-1011,24.53,46,86,3902,0,0,0
1777327018587,13773,483,-2478,-740,102,-928,24.53,46,86,3902,0,0,0
1777327018587,13668,776,-3179,-1154,40,-908,24.53,46,86,3902,0,0,0
1777327018621,14064,1023,-4084,-1481,-74,-948,24.53,46,86,3902,0,0,0
1777327018621,14288,912,-3836,-1704,-230,-1032,24.53,46,86,3902,0,0,0
1777327018654,14045,450,-3248,-1824,-300,-1123,24.53,46,86,3902,0,0,0
1777327018654,14265,6,-2775,-1808,-257,-1172,24.53,46,86,3902,0,0,0
1777327018720,14812,-194,-2836,-1654,-168,-1197,24.53,46,86,3902,0,0,0
1777327018720,15441,-294,-2918,-1408,-80,-1206,24.53,46,86,3902,0,0,0
1777327018720,16039,-484,-3109,-1166,4,-1226,24.53,47,87,3903,0,0,0
1777327018770,16260,-737,-3333,-990,73,-1234,24.53,47,87,3903,0,0,0
1777327018770,17029,-898,-3931,-876,123,-1235,24.53,47,87,3903,0,0,0
1777327018803,17596,-1245,-4281,-781,94,-1218,24.53,47,87,3903,0,0,0
1777327018803,18150,-1533,-4372,-710,39,-1175,24.53,47,87,3903,0,0,0
1777327018837,19021,-1723,-4438,-643,-5,-1114,24.53,47,87,3903,0,0,0
1777327018837,20326,-1995,-4517,-552,-34,-1048,24.53,47,87,3903,0,0,0
1777327018903,20654,-2694,-4710,-485,-66,-937,24.53,47,87,3903,0,0,0
1777327018903,20212,-3600,-5060,-442,-92,-735,24.53,47,87,3903,0,0,0
1777327018903,20177,-3672,-5527,-421,-141,-429,24.53,47,87,3903,0,0,0
1777327018937,22284,-2344,-5913,-391,-213,-102,24.53,47,87,3903,0,0,0
1777327018937,23871,-813,-5539,-331,-310,80,24.53,47,87,3903,0,0,0
1777327018970,24537,-447,-5180,-268,-299,104,24.53,47,87,3903,0,0,0
1777327018970,22417,-1812,-5418,-142,-246,93,24.53,47,87,3903,0,0,0
1777327019036,19542,-3154,-5482,79,-234,228,24.53,47,87,3903,0,0,0
1777327019036,17569,-3685,-5470,370,-242,494,24.53,47,87,3903,0,0,0
1777327019103,17002,-2899,-5182,774,-315,801,24.53,47,87,3903,0,0,0
1777327019103,16866,-1395,-3676,1234,-367,1027,24.53,47,87,3903,0,0,0
1777327019103,16664,-263,-2540,1592,-211,1096,24.53,47,87,3903,0,0,0
1777327019103,16696,179,-2896,1789,35,1115,24.53,47,87,3903,0,0,0
1777327019103,17071,492,-3870,1854,230,1178,24.53,47,87,3903,0,0,0
1777327019170,17783,1046,-4815,1850,294,1256,24.53,47,87,3903,0,0,0
1777327019170,17863,1248,-4954,1777,256,1319,24.53,47,87,3903,0,0,0
1777327019203,16777,1200,-4617,1605,256,1396,24.53,47,87,3903,0,0,0
1777327019203,16663,1283,-5161,1416,293,1492,24.53,47,87,3903,0,0,0
1777327019203,16783,1746,-5722,1177,261,1561,24.53,47,87,3903,0,0,0
1777327019303,17111,2055,-6175,998,140,1605,24.53,47,87,3903,0,0,0
1777327019303,16533,2195,-5428,851,29,1653,24.53,47,87,3903,0,0,0
1777327019303,15775,2545,-4997,746,27,1700,24.53,47,87,3903,0,0,0
1777327019303,15374,3128,-5000,693,70,1706,24.53,47,87,3903,0,0,0
1777327019353,15092,3605,-4971,689,98,1632,24.53,47,87,3903,0,0,0
1777327019353,14684,3752,-5015,705,121,1511,24.53,47,87,3903,0,0,0
1777327019386,14250,3583,-4573,738,136,1372,24.53,47,87,3903,0,0,0
1777327019386,13818,3536,-4065,771,193,1247,24.53,47,87,3903,0,0,0
1777327019486,14426,3836,-4056,774,282,1138,24.53,47,87,3903,0,0,0
1777327019486,15228,4366,-4329,739,329,998,24.53,47,87,3903,0,0,0
1777327019486,16248,4869,-4443,661,329,802,24.53,47,87,3903,0,0,0
1777327019486,17120,4813,-4515,546,294,568,24.53,47,87,3903,0,0,0
1777327019486,17004,4146,-4173,369,256,334,24.53,47,87,3903,0,0,0
1777327019520,16130,3067,-4124,161,228,184,24.53,47,87,3903,0,0,0
1777327019520,16533,3372,-4127,-19,173,147,24.53,47,87,3903,0,0,0
1777327019553,17832,4823,-3943,-177,73,53,24.53,47,87,3903,0,0,0
1777327019553,18484,5373,-2990,-421,-39,-424,24.53,47,87,3903,0,0,0
1777327019603,17448,3928,-2570,-597,-53,-753,24.53,47,87,3903,0,0,0
1777327019603,15876,1951,-2529,-727,-15,-944,24.53,47,87,3903,0,0,0
1777327019603,14680,958,-2769,-709,-22,-989,24.53,47,87,3903,0,0,0
1777327019671,14157,634,-2244,-586,-85,-1025,24.53,47,87,3903,0,0,0
1777327019671,14459,521,-1608,-416,-101,-1092,24.53,47,87,3903,0,0,0
1777327019703,15140,333,-1346,-249,-63,-1171,24.53,47,87,3903,0,0,0
1777327019703,16060,-67,-1395,-135,-39,-1199,24.53,47,87,3903,0,0,0
1777327019786,15884,-418,-1092,-119,-12,-1145,24.53,48,88,3903,0,0,0
1777327019786,15508,-215,-988,-194,55,-1033,24.53,48,88,3903,0,0,0
1777327019786,15107,386,-1322,-401,131,-934,24.53,48,88,3903,0,0,0
1777327019786,14888,937,-2108,-728,149,-924,24.53,48,88,3903,0,0,0
1777327019786,14973,1097,-2653,-1112,88,-975,24.53,48,88,3903,0,0,0
1777327019852,14462,677,-3076,-1433,6,-1046,24.53,48,88,3903,0,0,0
1777327019852,14025,357,-3047,-1697,-74,-1091,24.53,48,88,3903,0,0,0
1777327019886,13988,183,-3106,-1897,-105,-1128,24.53,48,88,3903,0,0,0
1777327019886,14545,67,-2975,-1944,-106,-1177,24.53,48,88,3903,0,0,0
1777327019936,15202,-102,-2844,-1842,-71,-1237,24.53,48,88,3903,0,0,0
1777327019936,15484,-546,-2952,-1637,-6,-1293,24.53,48,88,3903,0,0,0
1777327019969,16209,-1008,-3050,-1377,81,-1323,24.53,48,88,3903,0,0,0
1777327019969,16329,-1565,-3235,-1114,166,-1306,24.53,48,88,3903,0,0,0
1777327019969,16787,-1882,-3863,-872,224,-1257,24.53,48,88,3903,0,0,0
1777327020003,16958,-2311,-4311,-667,198,-1201,24.53,48,88,3903,0,0,0
1777327020003,17224,-2654,-4437,-530,115,-1120,24.53,48,88,3903,0,0,0
1777327020069,18016,-2688,-4471,-447,14,-1021,24.53,48,88,3903,0,0,0
1777327020069,18984,-2733,-4232,-385,-74,-913,24.53,48,88,3903,0,0,0
1777327020102,19886,-3001,-3983,-326,-106,-774,24.53,48,88,3903,0,0,0
1777327020102,19676,-3515,-4106,-271,-111,-576,24.53,48,88,3903,0,0,0
1777327020169,19230,-3723,-4426,-279,-100,-300,24.53,48,88,3903,0,0,0
1777327020169,20244,-2781,-5242,-312,-116,11,24.53,48,88,3903,0,0,0
1777327020169,21574,-1159,-5642,-295,-218,262,24.53,48,88,3903,0,0,0
1777327020202,22027,-63,-5310,-239,-316,331,24.53,48,88,3903,0,0,0
1777327020202,21215,-250,-5034,-172,-322,301,24.53,48,88,3903,0,0,0
1777327020236,20051,-891,-5255,-27,-287,326,24.53,48,88,3903,0,0,0
1777327020236,19593,-1070,-5388,239,-267,447,24.53,48,88,3903,0,0,0
1777327020336,18575,-1210,-5375,610,-316,560,24.53,48,88,3903,0,0,0
1777327020336,17281,-1408,-4173,1033,-390,653,24.53,48,88,3903,0,0,0
1777327020336,16751,-1412,-2995,1364,-322,769,24.53,48,88,3903,0,0,0
1777327020336,17041,-896,-2704,1596,-145,900,24.53,48,88,3903,0,0,0
1777327020336,17769,-292,-2966,1796,33,1025,24.53,48,88,3903,0,0,0
1777327020369,18053,174,-3328,1936,169,1125,24.53,48,88,3903,0,0,0
1777327020369,17970,435,-3955,1945,303,1233,24.53,48,88,3903,0,0,0
1777327020436,17887,904,-4923,1822,379,1342,24.53,48,88,3903,0,0,0
1777327020436,17555,1314,-5569,1639,365,1432,24.53,48,88,3903,0,0,0
1777327020469,16827,1674,-5543,1441,335,1478,24.53,48,88,3903,0,0,0
1777327020469,16803,1820,-6441,1196,260,1482,24.53,48,88,3903,0,0,0
1777327020519,16241,1762,-6436,1000,105,1458,24.53,48,88,3903,0,0,0
1777327020519,15391,1744,-5730,866,6,1443,24.53,48,88,3903,0,0,0
1777327020519,14747,2023,-5027,836,0,1427,24.53,48,88,3903,0,0,0
1777327020569,14620,2468,-4850,872,51,1362,24.53,48,88,3903,0,0,0
1777327020569,14548,2786,-5057,939,99,1237,24.53,48,88,3903,0,0,0
1777327020602,14145,2779,-4693,1021,101,1075,24.53,48,88,3903,0,0,0
1777327020602,13703,2469,-4483,1053,140,921,24.53,48,88,3903,0,0,0
1777327020635,13449,2065,-4369,1034,183,817,24.53,48,88,3903,0,0,0
1777327020635,13645,2173,-4414,968,202,747,24.53,48,88,3903,0,0,0
1777327020686,14140,2525,-4350,871,186,661,24.53,48,88,3903,0,0,0
1777327020686,15073,2827,-3990,665,179,503,24.53,48,88,3903,0,0,0
1777327020686,15324,3057,-3858,499,194,410,24.53,49,89,3905,0,0,0
1777327020752,15948,3314,-4186,304,218,308,24.53,49,89,3905,0,0,0
1777327020752,15873,3279,-4510,93,182,180,24.53,49,89,3905,0,0,0
1777327020769,15545,3291,-4389,-92,95,27,24.53,49,89,3905,0,0,0
1777327020769,17105,3864,-3973,-253,41,-125,24.53,49,89,3905,0,0,0
1777327020835,18501,4294,-3551,-377,29,-299,24.53,49,89,3905,0,0,0
1777327020835,18658,4158,-3397,-465,63,-526,24.53,49,89,3905,0,0,0
1777327020869,17630,3454,-3611,-559,101,-779,24.53,49,89,3905,0,0,0
1777327020869,16168,2286,-4039,-611,84,-1020,24.53,49,89,3905,0,0,0
1777327020869,15294,1485,-4206,-556,-31,-1225,24.53,49,89,3905,0,0,0
1777327020902,14636,815,-3425,-391,-196,-1432,24.53,49,89,3905,0,0,0
1777327020902,14235,-90,-2074,-140,-264,-1632,24.53,49,89,3905,0,0,0
1777327020968,15236,-727,-1509,179,-193,-1731,24.53,49,89,3905,0,0,0
1777327020968,16453,-1113,-1559,543,-117,-1733,24.53,49,89,3905,0,0,0
1777327021002,17430,-1453,-1421,806,-77,-1642,24.53,49,89,3905,0,0,0
1777327021002,16857,-1913,-1238,895,-4,-1472,24.53,49,89,3905,0,0,0
1777327021102,16364,-1783,-1477,788,67,-1228,24.53,49,89,3905,0,0,0
1777327021102,15964,-1316,-2091,498,75,-1030,24.53,49,89,3905,0,0,0
1777327021102,16038,-787,-2819,119,-13,-908,24.53,49,89,3905,0,0,0
1777327021136,15511,-674,-2808,-259,-182,-833,24.53,49,89,3905,0,0,0
1777327021136,15516,-695,-2440,-512,-281,-777,24.53,49,89,3905,0,0,0
1777327021136,15499,-548,-2405,-648,-335,-747,24.53,49,89,3905,0,0,0
1777327021136,15574,-531,-2001,-642,-345,-752,24.53,49,89,3905,0,0,0
1777327021202,15424,-642,-1623,-537,-281,-794,24.53,49,89,3905,0,0,0
1777327021202,15911,-909,-1528,-328,-194,-860,24.53,49,89,3905,0,0,0
1777327021235,16346,-1171,-1389,-56,-122,-934,24.53,49,89,3905,0,0,0
1777327021235,16652,-1521,-1267,236,-41,-1005,24.53,49,89,3905,0,0,0
1777327021235,16827,-1923,-1091,502,51,-1067,24.53,49,89,3905,0,0,0
1777327021269,16719,-2338,-1192,746,120,-1112,24.53,49,89,3905,0,0,0
1777327021269,16646,-2783,-1107,949,166,-1130,24.53,49,89,3905,0,0,0
1777327021335,16853,-2840,-966,1140,204,-1130,24.53,49,89,3905,0,0,0
1777327021335,17571,-2874,-1017,1349,263,-1126,24.53,49,89,3905,0,0,0
1777327021378,17939,-3230,-877,1577,322,-1120,24.53,49,89,3905,0,0,0
1777327021378,17623,-3838,-661,1791,455,-1036,24.53,49,89,3905,0,0,0
1777327021418,17502,-3830,-1133,1938,654,-838,24.53,49,89,3905,0,0,0
1777327021418,17487,-3255,-2802,1970,819,-617,24.53,49,89,3905,0,0,0
1777327021418,17314,-2473,-4684,1901,834,-435,24.53,49,89,3905,0,0,0
1777327021468,17396,-1338,-5730,1799,756,-295,24.53,49,89,3905,0,0,0
1777327021468,19541,421,-6591,1745,735,-169,24.53,49,89,3905,0,0,0
1777327021518,21092,1833,-7386,1769,743,-122,24.53,49,89,3905,0,0,0
1777327021518,20554,1450,-7825,1884,749,-194,24.53,49,89,3905,0,0,0
1777327021583,18289,257,-7771,2035,867,-167,24.53,49,89,3905,0,0,0
1777327021583,17389,358,-8753,2236,1031,23,24.53,49,89,3905,0,0,0
1777327021583,16935,1123,-9945,2507,1086,268,24.53,49,89,3905,0,0,0
1777327021583,16113,1948,-10710,2742,1043,439,24.53,49,89,3905,0,0,0
1777327021650,15126,2396,-10851,2860,919,515,24.53,49,89,3905,0,0,0
1777327021650,14006,2523,-10394,2804,812,542,24.53,49,89,3905,0,0,0
1777327021650,13845,2689,-10617,2666,766,592,24.53,49,89,3905,0,0,0
1777327021700,13084,2689,-10684,2518,716,659,24.53,49,89,3905,0,0,0
1777327021700,13087,3279,-11233,2381,664,732,24.53,49,89,3905,0,0,0
1777327021717,13088,3847,-11628,2291,585,737,24.52,50,90,3903,0,0,0
